=~=~=~=~=~=~=~=~=~=~=~= PuTTY log 2025.11.17 16:14:40 =~=~=~=~=~=~=~=~=~=~=~=
UTC,Lat,Long,Alt,ECEF_X,ECEF_Y,ECEF_Z,ax,ay,az,gx,gy,gz,magx,magy,magz
NA,,,,,,,0.453,0.117,-9.653,-0.007,0.528,-0.111,0,0,0
00:14:44.500,37.42683411,-122.17302704,33.400,-2700392.500,-4292631.000,3855138.750,1.286,0.546,-9.553,0.242,-0.010,-0.089,-1126,-443,-1162
00:14:44.500,37.42683411,-122.17302704,33.400,-2700392.500,-4292631.000,3855138.750,1.302,0.572,-9.459,0.151,-0.012,-0.119,-1121,-441,-1155
00:14:44.600,37.42683411,-122.17302704,33.400,-2700392.500,-4292631.000,3855138.750,1.367,0.783,-9.651,0.141,-0.048,-0.110,-1118,-428,-1147
00:14:44.600,37.42683411,-122.17302704,33.400,-2700392.500,-4292631.000,3855138.750,1.343,0.781,-9.546,0.209,-0.018,-0.083,-1126,-438,-1152
00:14:44.700,37.42683411,-122.17302704,33.400,-2700392.500,-4292631.000,3855138.750,1.341,0.711,-9.771,0.289,-0.036,-0.061,-1111,-433,-1157
00:14:44.700,37.42683411,-122.17302704,33.400,-2700392.500,-4292631.000,3855138.750,1.190,0.555,-9.682,0.278,0.005,-0.020,-1118,-438,-1155
00:14:44.800,37.42683411,-122.17302704,33.400,-2700392.500,-4292631.000,3855138.750,1.156,0.572,-9.519,0.164,0.016,0.018,-1128,-446,-1172
00:14:44.800,37.42683411,-122.17302704,33.400,-2700392.500,-4292631.000,3855138.750,1.372,0.615,-9.570,0.085,-0.000,0.028,-1128,-453,-1160
00:14:44.900,37.42683029,-122.17302704,33.400,-2700392.750,-4292631.000,3855138.750,1.353,0.697,-9.689,0.100,0.004,0.007,-1133,-441,-1165
00:14:44.900,37.42683029,-122.17302704,33.400,-2700392.750,-4292631.000,3855138.750,1.369,0.673,-9.567,0.118,-0.024,-0.010,-1126,-438,-1160
00:14:45.000,37.42683029,-122.17302704,33.400,-2700392.750,-4292631.000,3855138.750,1.494,0.668,-9.699,0.135,0.009,0.011,-1131,-426,-1165
00:14:45.000,37.42683029,-122.17302704,33.300,-2700392.500,-4292631.000,3855138.500,1.314,0.608,-9.799,0.196,0.005,0.022,-1126,-428,-1157
00:14:45.100,37.42683029,-122.17302704,33.400,-2700392.750,-4292631.000,3855138.750,1.168,0.572,-9.572,0.237,0.044,0.008,-1118,-438,-1152
00:14:45.100,37.42683029,-122.17302704,33.400,-2700392.750,-4292631.000,3855138.750,1.228,0.548,-9.639,0.206,0.030,-0.005,-1113,-446,-1157
00:14:45.200,37.42683029,-122.17302704,33.300,-2700392.750,-4292631.000,3855138.500,1.264,0.503,-9.467,0.114,-0.001,-0.008,-1118,-446,-1157
00:14:45.200,37.42683029,-122.17302704,33.300,-2700392.750,-4292631.000,3855138.500,1.319,0.632,-9.632,0.091,-0.034,0.004,-1118,-431,-1160
00:14:45.300,37.42683029,-122.17302704,33.400,-2700392.750,-4292631.000,3855138.500,1.269,0.668,-9.634,0.167,-0.017,0.013,-1133,-436,-1175
00:14:45.300,37.42683029,-122.17302704,33.400,-2700392.750,-4292631.000,3855138.500,1.307,0.591,-9.562,0.230,-0.013,0.010,-1111,-436,-1167
00:14:45.400,37.42683029,-122.17302704,33.300,-2700392.750,-4292631.000,3855138.500,1.233,0.622,-9.543,0.246,-0.037,-0.017,-1126,-438,-1152
00:14:45.400,37.42683029,-122.17302704,33.300,-2700392.750,-4292631.000,3855138.500,1.185,0.486,-9.586,0.201,-0.033,-0.019,-1121,-443,-1162
00:14:45.500,37.42683029,-122.17302704,33.300,-2700392.750,-4292631.000,3855138.500,1.204,0.551,-9.656,0.161,-0.010,-0.025,-1116,-461,-1182
00:14:45.500,37.42683029,-122.17302704,33.300,-2700392.750,-4292631.000,3855138.500,1.267,0.565,-9.510,0.102,-0.006,-0.015,-1111,-446,-1147
00:14:45.600,37.42683029,-122.17302704,33.300,-2700392.750,-4292631.000,3855138.500,1.183,0.658,-9.785,0.083,-0.015,-0.021,-1108,-451,-1175
00:14:45.600,37.42683029,-122.17302704,33.300,-2700392.750,-4292631.000,3855138.500,1.214,0.711,-9.759,0.143,-0.008,-0.002,-1118,-428,-1177
00:14:45.700,37.42683029,-122.17302704,33.300,-2700392.750,-4292631.000,3855138.500,1.221,0.608,-9.699,0.189,0.023,-0.003,-1113,-448,-1190
00:14:45.700,37.42683029,-122.17302704,33.300,-2700392.750,-4292631.000,3855138.500,1.161,0.603,-9.579,0.170,-0.021,-0.013,-1106,-428,-1167
00:14:45.800,37.42683029,-122.17302704,33.300,-2700392.750,-4292631.000,3855138.500,1.257,0.618,-9.629,0.173,-0.000,0.015,-1123,-438,-1152
00:14:45.800,37.42683029,-122.17302704,33.300,-2700392.750,-4292631.000,3855138.500,1.161,0.596,-9.711,0.198,-0.033,-0.009,-1106,-431,-1167
00:14:45.900,37.42683029,-122.17302704,33.300,-2700392.750,-4292631.000,3855138.500,1.262,0.702,-9.639,0.205,-0.035,-0.021,-1118,-451,-1172
00:14:45.900,37.42683029,-122.17302704,33.300,-2700392.750,-4292631.000,3855138.500,1.168,0.721,-9.651,0.192,-0.015,-0.021,-1118,-438,-1172
00:14:46.000,37.42683029,-122.17302704,33.300,-2700392.750,-4292631.000,3855138.250,1.109,0.563,-9.708,0.187,-0.031,-0.023,-1111,-438,-1177
00:14:46.000,37.42683029,-122.17302704,33.300,-2700392.750,-4292631.000,3855138.250,1.156,0.582,-9.646,0.165,-0.027,-0.011,-1108,-448,-1162
00:14:46.100,37.42683029,-122.17302704,33.300,-2700392.750,-4292631.000,3855138.250,1.082,0.539,-9.716,0.146,0.009,-0.015,-1111,-453,-1177
00:14:46.100,37.42683029,-122.17302704,33.300,-2700392.750,-4292631.000,3855138.250,1.147,0.570,-9.610,0.134,-0.009,-0.044,-1106,-438,-1175
00:14:46.200,37.42683029,-122.17302704,33.400,-2700393.000,-4292631.000,3855138.500,1.104,0.630,-9.725,0.121,-0.020,-0.052,-1102,-431,-1165
00:14:46.200,37.42683029,-122.17302704,33.400,-2700393.000,-4292631.000,3855138.500,1.123,0.634,-9.608,0.120,-0.023,-0.048,-1106,-431,-1185
00:14:46.300,37.42683029,-122.17302704,33.300,-2700393.000,-4292631.000,3855138.250,1.080,0.678,-9.735,0.108,-0.088,-0.064,-1100,-431,-1187
00:14:46.300,37.42683029,-122.17302704,33.300,-2700393.000,-4292631.000,3855138.250,0.910,0.584,-9.869,0.154,-0.053,-0.047,-1082,-423,-1175
00:14:46.400,37.42682648,-122.17302704,33.400,-2700393.000,-4292631.000,3855138.250,0.845,0.436,-9.965,0.248,0.049,-0.043,-1097,-426,-1170
00:14:46.400,37.42682648,-122.17302704,33.400,-2700393.000,-4292631.000,3855138.250,1.061,0.481,-9.622,0.222,0.046,-0.074,-1087,-428,-1167
00:14:46.500,37.42682648,-122.17302704,33.300,-2700393.000,-4292631.000,3855138.250,1.228,0.725,-9.455,0.092,-0.005,-0.120,-1103,-433,-1190
00:14:46.500,37.42682648,-122.17302704,33.300,-2700393.000,-4292631.000,3855138.250,1.259,0.852,-9.675,0.026,-0.072,-0.139,-1090,-410,-1175
00:14:46.600,37.42682648,-122.17303467,33.400,-2700393.000,-4292631.000,3855138.250,1.137,0.962,-9.965,0.149,-0.042,-0.126,-1092,-395,-1185
00:14:46.600,37.42682648,-122.17303467,33.400,-2700393.000,-4292631.000,3855138.250,1.235,1.075,-9.704,0.286,0.065,-0.039,-1103,-407,-1180
00:14:46.700,37.42682648,-122.17303467,33.400,-2700393.000,-4292631.000,3855138.250,1.250,0.970,-9.507,0.342,0.042,-0.024,-1095,-405,-1167
00:14:46.700,37.42682648,-122.17303467,33.400,-2700393.000,-4292631.000,3855138.250,1.149,0.891,-9.505,0.322,0.040,-0.058,-1097,-423,-1167
00:14:46.800,37.42682648,-122.17303467,33.300,-2700393.000,-4292631.000,3855138.250,1.152,0.766,-9.352,0.205,0.000,0.008,-1103,-433,-1162
00:14:46.800,37.42682648,-122.17303467,33.300,-2700393.000,-4292631.000,3855138.250,0.826,0.790,-9.515,0.147,-0.032,0.058,-1097,-426,-1170
00:14:46.900,37.42682648,-122.17303467,33.400,-2700393.000,-4292631.000,3855138.250,0.589,0.642,-9.426,0.051,-0.129,0.019,-1103,-436,-1180
00:14:46.900,37.42682648,-122.17303467,33.400,-2700393.000,-4292631.000,3855138.250,0.773,0.376,-9.876,0.094,0.007,-0.086,-1097,-431,-1170
00:14:47.000,37.42682648,-122.17303467,33.400,-2700393.000,-4292631.000,3855138.250,1.025,0.311,-9.218,0.210,-0.070,-0.191,-1100,-415,-1185
00:14:47.000,37.42682648,-122.17303467,33.400,-2700393.000,-4292631.000,3855138.250,0.989,0.977,-9.752,0.159,-0.064,0.084,-1106,-410,-1177
00:14:47.100,37.42682648,-122.17303467,33.400,-2700393.000,-4292631.000,3855138.250,1.250,1.080,-9.673,0.306,0.015,0.107,-1092,-418,-1187
00:14:47.100,37.42682648,-122.17303467,33.400,-2700393.000,-4292631.000,3855138.250,1.386,0.828,-9.491,0.271,-0.096,0.092,-1092,-436,-1190
00:14:47.200,37.42682648,-122.17303467,33.400,-2700393.000,-4292631.000,3855138.250,1.247,1.085,-9.790,0.184,-0.095,0.068,-1085,-438,-1197
00:14:47.200,37.42682648,-122.17303467,33.400,-2700393.000,-4292631.000,3855138.250,1.104,0.989,-9.771,0.155,0.081,0.146,-1082,-443,-1195
00:14:47.300,37.42682648,-122.17303467,33.300,-2700393.000,-4292631.000,3855138.000,1.199,1.010,-9.752,0.189,0.100,0.120,-1100,-463,-1192
00:14:47.300,37.42682648,-122.17303467,33.300,-2700393.000,-4292631.000,3855138.000,0.996,0.833,-9.641,0.309,0.009,0.169,-1070,-448,-1172
00:14:47.400,37.42682648,-122.17303467,33.300,-2700393.000,-4292631.000,3855138.000,0.831,0.474,-9.634,0.225,0.058,0.242,-1100,-468,-1187
00:14:47.400,37.42682648,-122.17303467,33.300,-2700393.000,-4292631.000,3855138.000,0.950,0.414,-9.603,0.173,0.100,0.266,-1085,-485,-1167
00:14:47.500,37.42682648,-122.17303467,33.300,-2700393.000,-4292631.000,3855138.000,1.173,-0.065,-9.491,0.272,0.025,0.244,-1080,-492,-1167
00:14:47.500,37.42682648,-122.17303467,33.300,-2700393.000,-4292631.000,3855138.000,1.480,-1.077,-9.313,0.090,-0.080,-0.250,-1087,-502,-1162
00:14:47.600,37.42682648,-122.17303467,33.300,-2700393.250,-4292631.000,3855138.000,0.982,0.364,-9.855,-0.050,0.115,-0.010,-1097,-482,-1170
00:14:47.600,37.42682648,-122.17303467,33.300,-2700393.250,-4292631.000,3855138.000,0.996,0.809,-10.190,0.002,0.129,-0.021,-1113,-487,-1172
00:14:47.700,37.42682648,-122.17303467,33.300,-2700393.250,-4292631.000,3855138.000,1.384,0.994,-9.771,0.111,0.104,-0.016,-1097,-468,-1165
00:14:47.700,37.42682648,-122.17303467,33.300,-2700393.250,-4292631.000,3855138.000,1.487,0.900,-9.570,0.135,0.055,-0.029,-1111,-468,-1150
00:14:47.800,37.42682648,-122.17303467,33.300,-2700393.250,-4292631.000,3855138.000,1.379,0.809,-9.764,0.178,0.037,-0.007,-1121,-472,-1155
00:14:47.800,37.42682648,-122.17303467,33.300,-2700393.250,-4292631.000,3855138.000,1.346,0.864,-9.366,0.155,0.104,-0.037,-1123,-475,-1155
00:14:47.900,37.42682648,-122.17303467,33.200,-2700393.250,-4292631.000,3855138.000,1.513,0.735,-9.127,0.128,0.015,-0.108,-1116,-461,-1145
00:14:47.900,37.42682648,-122.17303467,33.200,-2700393.250,-4292631.000,3855138.000,1.369,0.728,-9.067,0.046,-0.150,-0.156,-1131,-448,-1157
00:14:48.000,37.42682266,-122.17303467,33.200,-2700393.250,-4292631.000,3855138.000,0.977,1.001,-9.725,0.034,-0.155,-0.154,-1111,-426,-1162
00:14:48.000,37.42682266,-122.17303467,33.200,-2700393.250,-4292631.000,3855138.000,0.895,1.106,-9.553,0.065,-0.010,-0.071,-1108,-426,-1167
00:14:48.100,37.42682266,-122.17303467,33.200,-2700393.250,-4292631.000,3855138.000,1.025,0.862,-9.555,0.165,-0.049,-0.048,-1106,-428,-1175
00:14:48.100,37.42682266,-122.17303467,33.200,-2700393.250,-4292631.000,3855138.000,1.135,0.836,-9.503,0.194,-0.085,-0.016,-1103,-418,-1172
00:14:48.200,37.42682266,-122.17303467,33.300,-2700393.250,-4292631.000,3855138.000,0.931,0.828,-9.663,0.205,-0.094,0.023,-1102,-423,-1180
00:14:48.200,37.42682266,-122.17303467,33.300,-2700393.250,-4292631.000,3855138.000,0.843,0.965,-9.716,0.226,-0.104,-0.056,-1097,-421,-1182
00:14:48.300,37.42682266,-122.17303467,33.300,-2700393.250,-4292631.000,3855138.000,0.728,1.113,-9.649,0.304,0.032,-0.073,-1092,-431,-1192
00:14:48.300,37.42682266,-122.17303467,33.300,-2700393.250,-4292631.000,3855138.000,1.022,0.776,-9.278,0.345,0.015,-0.056,-1085,-438,-1175
00:14:48.400,37.42682266,-122.17303467,33.400,-2700393.250,-4292631.000,3855138.000,1.006,0.565,-9.258,0.309,-0.132,-0.017,-1080,-441,-1177
00:14:48.400,37.42682266,-122.17303467,33.400,-2700393.250,-4292631.000,3855138.000,0.929,-0.196,-9.103,0.185,-0.294,-0.194,-1075,-451,-1185
00:14:48.500,37.42682266,-122.17303467,33.400,-2700393.500,-4292631.000,3855138.000,0.409,0.567,-10.005,0.003,-0.292,-0.189,-1050,-436,-1210
00:14:48.500,37.42682266,-122.17303467,33.400,-2700393.500,-4292631.000,3855138.000,0.438,0.608,-10.178,-0.048,-0.113,-0.187,-1050,-415,-1215
00:14:48.600,37.42682266,-122.17303467,33.500,-2700393.500,-4292631.500,3855138.000,0.539,0.697,-9.993,-0.071,-0.029,-0.203,-1052,-390,-1207
00:14:48.600,37.42682266,-122.17303467,33.500,-2700393.500,-4292631.500,3855138.000,0.639,1.085,-9.953,-0.059,0.050,-0.176,-1045,-390,-1220
00:14:48.700,37.42682266,-122.17303467,33.500,-2700393.500,-4292631.500,3855138.000,0.781,1.307,-9.938,0.043,0.125,-0.104,-1062,-356,-1225
00:14:48.700,37.42682266,-122.17303467,33.500,-2700393.500,-4292631.500,3855138.000,0.927,1.305,-9.804,0.211,0.143,-0.073,-1047,-356,-1202
00:14:48.800,37.42682266,-122.17303467,33.600,-2700393.500,-4292631.500,3855138.000,0.891,1.223,-9.538,0.248,-0.012,-0.052,-1062,-346,-1210
00:14:48.800,37.42682266,-122.17303467,33.600,-2700393.500,-4292631.500,3855138.000,0.706,1.288,-9.498,0.251,0.044,-0.052,-1065,-365,-1212
00:14:48.900,37.42682266,-122.17303467,33.600,-2700393.500,-4292631.500,3855138.000,0.742,1.322,-9.424,0.126,0.093,-0.105,-1067,-356,-1200
00:14:48.900,37.42682266,-122.17303467,33.600,-2700393.500,-4292631.500,3855138.000,0.670,1.578,-10.022,0.292,0.159,-0.184,-1070,-348,-1185
00:14:49.000,37.42682266,-122.17303467,33.600,-2700393.500,-4292631.500,3855138.000,0.795,1.312,-9.620,0.468,0.124,-0.258,-1085,-343,-1200
00:14:49.000,37.42682266,-122.17303467,33.600,-2700393.500,-4292631.500,3855138.000,1.223,1.267,-9.239,0.469,0.193,-0.236,-1102,-361,-1202
00:14:49.100,37.42682266,-122.17303467,33.700,-2700393.500,-4292631.500,3855138.000,1.369,0.845,-9.146,0.386,0.104,-0.165,-1103,-361,-1187
00:14:49.100,37.42682266,-122.17303467,33.700,-2700393.500,-4292631.500,3855138.000,1.305,0.699,-9.349,0.322,-0.141,-0.132,-1100,-375,-1182
00:14:49.200,37.42682266,-122.17303467,33.700,-2700393.500,-4292631.500,3855138.000,1.197,0.735,-9.388,0.224,-0.133,-0.058,-1090,-375,-1175
00:14:49.200,37.42682266,-122.17303467,33.700,-2700393.500,-4292631.500,3855138.000,0.934,0.862,-9.586,0.192,-0.174,-0.070,-1090,-372,-1195
00:14:49.300,37.42682266,-122.17303467,33.700,-2700393.500,-4292631.500,3855138.000,0.646,0.840,-10.139,0.217,-0.309,-0.076,-1067,-375,-1205
00:14:49.300,37.42682266,-122.17303467,33.700,-2700393.500,-4292631.500,3855138.000,0.488,0.737,-10.357,0.317,-0.191,-0.066,-1062,-390,-1215
00:14:49.400,37.42682266,-122.17303467,33.700,-2700393.750,-4292631.500,3855138.000,0.543,0.651,-10.070,0.362,0.017,-0.052,-1055,-387,-1217
00:14:49.400,37.42682266,-122.17303467,33.700,-2700393.750,-4292631.500,3855138.000,0.687,0.299,-9.438,0.202,0.016,0.017,-1065,-397,-1207
00:14:49.500,37.42682266,-122.17303467,33.700,-2700393.750,-4292631.500,3855138.000,0.666,0.457,-9.534,0.039,-0.082,0.042,-1052,-402,-1217
00:14:49.500,37.42682266,-122.17303467,33.700,-2700393.750,-4292631.500,3855138.000,0.582,0.448,-9.354,-0.145,-0.060,0.110,-1055,-385,-1220
00:14:49.600,37.42682266,-122.17303467,33.800,-2700393.750,-4292631.500,3855138.000,0.350,0.311,-9.610,-0.332,-0.019,0.180,-1040,-375,-1217
00:14:49.600,37.42682266,-122.17303467,33.800,-2700393.750,-4292631.500,3855138.000,0.390,0.828,-9.677,-0.373,-0.018,0.137,-1047,-351,-1222
00:14:49.700,37.42682266,-122.17303467,33.800,-2700393.750,-4292631.500,3855138.000,0.187,1.111,-10.216,-0.200,-0.116,0.028,-1042,-316,-1227
00:14:49.700,37.42682266,-122.17303467,33.800,-2700393.750,-4292631.500,3855138.000,0.266,1.391,-10.161,0.107,-0.104,-0.031,-1030,-316,-1220
00:14:49.800,37.42682266,-122.17303467,33.800,-2700393.750,-4292631.500,3855138.000,0.302,1.425,-10.020,0.252,-0.029,-0.026,-1025,-300,-1235
00:14:49.800,37.42682266,-122.17303467,33.800,-2700393.750,-4292631.500,3855138.000,0.376,1.156,-9.476,0.253,-0.033,-0.003,-1032,-305,-1232
00:14:49.900,37.42682266,-122.17303467,33.900,-2700393.750,-4292631.500,3855138.000,0.074,1.286,-9.938,0.256,-0.107,-0.019,-1025,-307,-1240
00:14:49.900,37.42682266,-122.17303467,33.900,-2700393.750,-4292631.500,3855138.000,0.077,1.408,-10.422,0.474,-0.059,-0.082,-1025,-328,-1230
00:14:50.000,37.42682266,-122.17303467,34.000,-2700393.750,-4292631.500,3855138.000,0.304,1.211,-9.780,0.652,0.018,-0.080,-1013,-353,-1252
00:14:50.000,37.42682266,-122.17303467,34.000,-2700393.750,-4292631.500,3855138.000,0.445,0.656,-9.225,0.539,0.017,-0.020,-1023,-372,-1232
00:14:50.100,37.42681885,-122.17303467,34.000,-2700393.750,-4292631.500,3855138.000,0.117,0.345,-9.189,0.333,-0.018,-0.028,-1011,-385,-1235
00:14:50.100,37.42681885,-122.17303467,34.000,-2700393.750,-4292631.500,3855138.000,0.127,0.390,-9.629,0.168,-0.034,-0.056,-1021,-400,-1235
00:14:50.200,37.42681885,-122.17303467,34.000,-2700393.750,-4292631.500,3855138.000,0.232,0.670,-9.706,0.104,0.040,-0.082,-1013,-395,-1232
00:14:50.200,37.42681885,-122.17303467,34.000,-2700393.750,-4292631.500,3855138.000,0.230,0.764,-9.780,0.124,-0.026,-0.093,-1016,-385,-1237
00:14:50.300,37.42681885,-122.17303467,34.100,-2700393.750,-4292632.000,3855138.000,0.079,0.807,-10.034,0.171,-0.010,-0.093,-1016,-377,-1242
00:14:50.300,37.42681885,-122.17303467,34.100,-2700393.750,-4292632.000,3855138.000,0.089,0.627,-10.034,0.163,0.086,-0.058,-1023,-380,-1240
00:14:50.400,37.42681885,-122.17303467,34.100,-2700393.750,-4292632.000,3855138.000,0.393,0.831,-9.979,0.177,0.241,-0.040,-1030,-372,-1235
00:14:50.400,37.42681885,-122.17303467,34.100,-2700393.750,-4292632.000,3855138.000,0.371,0.783,-9.622,0.178,0.135,-0.033,-1042,-375,-1225
00:14:50.500,37.42681885,-122.17303467,34.100,-2700393.750,-4292632.000,3855138.000,0.366,0.759,-9.653,0.223,0.071,-0.040,-1045,-375,-1222
00:14:50.500,37.42681885,-122.17303467,34.100,-2700393.750,-4292632.000,3855138.000,0.464,0.749,-9.699,0.227,0.021,-0.035,-1045,-380,-1217
00:14:50.600,37.42681885,-122.17303467,34.100,-2700393.750,-4292632.000,3855138.000,0.376,0.577,-9.653,0.164,0.059,-0.026,-1050,-380,-1217
00:14:50.600,37.42681885,-122.17303467,34.100,-2700393.750,-4292632.000,3855138.000,0.419,0.733,-9.950,0.129,0.112,-0.027,-1060,-375,-1212
00:14:50.700,37.42681885,-122.17303467,34.100,-2700393.750,-4292632.000,3855138.000,0.565,0.960,-8.827,0.145,0.195,-0.041,-1070,-372,-1205
00:14:50.700,37.42681885,-122.17303467,34.100,-2700393.750,-4292632.000,3855138.000,1.085,0.713,-5.073,-0.204,0.449,-0.028,-1097,-361,-1192
00:14:50.800,37.42681885,-122.17303467,34.100,-2700393.750,-4292632.000,3855138.000,0.318,0.072,-0.680,0.587,-0.331,-0.039,-1100,-358,-1190
00:14:50.800,37.42681885,-122.17303467,34.100,-2700393.750,-4292632.000,3855138.000,0.096,0.041,0.069,0.571,-0.244,-0.016,-1085,-385,-1210
00:14:50.900,37.42681885,-122.17303467,34.100,-2700393.750,-4292632.000,3855138.000,0.093,0.072,-0.103,0.598,-0.222,-0.007,-1062,-416,-1220
00:14:50.900,37.42681885,-122.17303467,34.100,-2700393.750,-4292632.000,3855138.000,0.120,0.079,-0.318,0.645,-0.202,-0.007,-1052,-426,-1215
00:14:51.000,37.42681885,-122.17303467,33.900,-2700393.750,-4292631.500,3855138.000,0.079,0.101,-0.419,0.700,-0.168,-0.008,-1030,-482,-1232
00:14:51.000,37.42681885,-122.17303467,33.900,-2700393.750,-4292631.500,3855138.000,0.299,0.227,-1.223,0.764,-0.134,0.004,-1035,-520,-1252
00:14:51.100,37.42681885,-122.17303467,33.700,-2700393.750,-4292631.500,3855137.750,0.546,-0.007,-1.688,0.803,0.031,0.084,-1032,-590,-1265
00:14:51.100,37.42681885,-122.17303467,33.700,-2700393.750,-4292631.500,3855137.750,0.895,-0.062,-1.314,0.918,0.160,0.279,-1042,-685,-1283
00:14:51.200,37.42681885,-122.17303467,33.700,-2700393.750,-4292631.500,3855137.750,1.369,-16.010,-19.613,-4.366,3.309,-0.173,-1095,-738,-1326
00:14:51.200,37.42681885,-122.17303467,33.700,-2700393.750,-4292631.500,3855137.750,-1.116,0.012,-1.039,1.954,0.316,-0.408,-1003,-575,-1363
00:14:51.300,37.42681885,-122.17303467,33.500,-2700393.500,-4292631.500,3855137.750,0.031,0.364,0.318,2.033,0.563,-0.315,-1027,-641,-1301
00:14:51.400,37.42682266,-122.17303467,33.500,-2700393.500,-4292631.500,3855137.750,-0.034,0.354,0.077,2.070,0.543,-0.282,-1062,-733,-1217
00:14:51.400,37.42682266,-122.17303467,33.100,-2700393.250,-4292631.000,3855137.500,-0.012,0.395,0.079,2.114,0.510,-0.270,-1085,-827,-1147
00:14:51.400,37.42682266,-122.17303467,33.100,-2700393.250,-4292631.000,3855137.500,0.091,0.419,0.201,2.139,0.451,-0.248,-1126,-927,-1101
00:14:51.500,37.42682266,-122.17303467,32.800,-2700393.000,-4292631.000,3855137.500,0.098,0.397,0.120,2.147,0.454,-0.213,-1166,-1027,-1021
00:14:51.500,37.42682266,-122.17303467,32.800,-2700393.000,-4292631.000,3855137.500,0.141,0.381,0.230,2.146,0.463,-0.165,-1197,-1137,-925
00:14:51.600,37.42682266,-122.17303467,32.900,-2700393.000,-4292631.000,3855137.500,-1.063,-11.262,11.839,-3.939,0.751,-1.612,-1212,-1158,-885
00:14:51.600,37.42682266,-122.17303467,32.900,-2700393.000,-4292631.000,3855137.500,14.545,19.613,-19.613,-4.366,-0.237,-1.848,-1323,-536,-1098
00:14:51.700,37.42682266,-122.17302704,33.000,-2700393.000,-4292631.000,3855137.750,2.931,7.044,-19.613,3.550,-4.366,1.307,-1072,-167,-1281
00:14:51.800,37.42682266,-122.17302704,33.000,-2700393.000,-4292631.000,3855137.750,-0.632,1.317,1.140,3.448,0.140,1.660,-875,-418,-1366
00:14:51.800,37.42682266,-122.17302704,33.000,-2700393.000,-4292631.000,3855137.750,-0.694,0.254,1.587,1.821,2.363,1.738,-915,-653,-1301
00:14:51.900,37.42682266,-122.17302704,33.000,-2700392.750,-4292631.000,3855137.750,-0.199,-0.148,3.036,-0.254,3.868,1.738,-1042,-778,-1192
00:14:51.900,37.42682266,-122.17302704,33.300,-2700393.000,-4292631.500,3855137.750,1.674,2.387,3.790,-4.366,3.826,0.793,-1235,-785,-1041
00:14:51.900,37.42682266,-122.17302704,33.300,-2700393.000,-4292631.500,3855137.750,3.503,9.254,6.546,-1.132,-4.366,0.599,-1176,-521,-1185
00:14:52.000,37.42682266,-122.17302704,33.400,-2700393.000,-4292631.500,3855138.000,-0.225,4.056,-5.160,-4.366,1.331,1.203,-788,-326,-1368
00:14:52.100,37.42682266,-122.17302704,33.400,-2700392.750,-4292631.500,3855138.000,3.309,-3.359,-1.027,0.172,1.645,0.512,-808,-275,-1366
00:14:52.100,37.42682266,-122.17302704,33.500,-2700393.000,-4292631.500,3855138.000,-0.213,3.541,-6.155,2.217,0.855,-0.095,-875,-351,-1333
00:14:52.200,37.42682266,-122.17302704,33.500,-2700393.000,-4292631.500,3855138.000,0.895,6.172,-9.833,2.610,2.182,0.089,-968,-517,-1278
00:14:52.200,37.42682266,-122.17302704,33.500,-2700393.000,-4292631.500,3855138.000,2.442,1.451,-8.906,0.277,1.434,0.318,-1057,-631,-1175
00:14:52.300,37.42682266,-122.17302704,33.500,-2700393.000,-4292631.500,3855138.000,3.474,2.521,-6.254,-0.420,-0.131,0.145,-1106,-622,-1165
00:14:52.300,37.42682266,-122.17302704,33.400,-2700393.000,-4292631.500,3855138.000,2.662,2.131,-8.138,-0.061,-1.156,-0.043,-1070,-602,-1205
00:14:52.400,37.42682266,-122.17302704,33.400,-2700392.750,-4292631.500,3855138.000,1.506,3.048,-10.743,-0.180,-0.856,-0.208,-1006,-577,-1252
00:14:52.400,37.42682266,-122.17302704,33.400,-2700392.750,-4292631.500,3855138.000,1.468,3.361,-9.907,0.017,0.180,0.000,-973,-558,-1270
00:14:52.500,37.42682266,-122.17302704,33.400,-2700392.750,-4292631.500,3855138.000,2.009,2.931,-8.684,0.390,0.182,0.023,-993,-548,-1260
00:14:52.500,37.42682266,-122.17302704,33.500,-2700393.000,-4292631.500,3855138.000,2.061,2.679,-9.143,0.225,0.072,-0.010,-1018,-563,-1240
00:14:52.600,37.42682266,-122.17302704,33.500,-2700393.000,-4292631.500,3855138.000,1.899,2.914,-8.985,0.115,-0.093,-0.035,-1001,-571,-1245
00:14:52.600,37.42682266,-122.17302704,33.500,-2700393.000,-4292631.500,3855138.000,1.949,2.923,-9.172,0.193,0.037,-0.013,-993,-566,-1260
00:14:52.700,37.42682266,-122.17302704,33.500,-2700393.000,-4292631.500,3855138.000,2.035,2.799,-9.072,0.164,-0.011,-0.019,-1001,-563,-1242
00:14:52.700,37.42682266,-122.17302704,33.500,-2700393.000,-4292631.500,3855138.000,1.872,2.856,-9.158,0.176,0.004,-0.021,-1001,-553,-1232
00:14:52.800,37.42682266,-122.17302704,33.500,-2700393.000,-4292631.500,3855138.000,2.011,2.823,-9.031,0.165,-0.010,-0.021,-993,-561,-1250
00:14:52.800,37.42682266,-122.17302704,33.600,-2700393.000,-4292631.500,3855138.000,1.937,2.887,-9.194,0.175,0.001,-0.018,-1003,-571,-1257
00:14:52.900,37.42682266,-122.17302704,33.600,-2700393.000,-4292631.500,3855138.000,1.939,2.904,-9.117,0.171,-0.005,-0.020,-988,-568,-1235
00:14:52.900,37.42682266,-122.17302704,33.600,-2700393.000,-4292631.500,3855138.000,2.014,2.909,-8.993,0.169,0.000,-0.017,-991,-571,-1255
00:14:52.900,37.42682266,-122.17302704,33.600,-2700393.000,-4292631.500,3855138.000,1.973,2.883,-9.043,0.172,-0.006,-0.021,-1008,-575,-1262
00:14:53.000,37.42682266,-122.17302704,33.600,-2700393.000,-4292631.500,3855138.000,1.978,2.885,-9.029,0.172,-0.007,-0.021,-1003,-561,-1252
00:14:53.000,37.42682266,-122.17302704,33.600,-2700393.000,-4292631.500,3855138.000,1.951,2.928,-9.199,0.201,0.017,-0.011,-988,-566,-1240
00:14:53.100,37.42682266,-122.17302704,33.700,-2700393.000,-4292632.000,3855138.000,3.266,2.332,-7.221,0.077,-0.064,-0.014,-993,-566,-1245
00:14:53.200,37.42682266,-122.17302704,33.700,-2700393.000,-4292632.000,3855138.000,2.112,2.081,-9.242,-0.554,-0.977,-0.143,-971,-523,-1273
00:14:53.200,37.42682266,-122.17302704,33.600,-2700393.000,-4292631.500,3855138.000,0.263,4.549,-9.438,-2.053,-3.224,-0.382,-818,-428,-1358
00:14:53.300,37.42682266,-122.17302704,33.600,-2700393.000,-4292631.500,3855138.000,-3.661,8.191,-6.033,-1.055,-2.036,-1.352,-666,-297,-1413
00:14:53.300,37.42682266,-122.17302704,33.600,-2700393.000,-4292631.500,3855138.000,-5.646,6.718,-10.767,-0.835,-3.217,-2.261,-478,-190,-1445
00:14:53.400,37.42682266,-122.17302704,33.600,-2700393.000,-4292631.500,3855138.000,-7.178,9.907,-9.572,-1.849,-0.752,-2.599,-307,-48,-1432
00:14:53.400,37.42682266,-122.17302704,33.700,-2700393.000,-4292632.000,3855138.000,-5.037,10.520,-13.477,-1.204,3.004,-1.624,-381,77,-1398
00:14:53.500,37.42682266,-122.17302704,33.700,-2700393.000,-4292632.000,3855138.000,-4.266,8.995,-14.679,0.600,1.462,-1.429,-526,143,-1381
00:14:53.500,37.42682266,-122.17302704,33.700,-2700393.000,-4292632.000,3855138.000,-3.237,7.362,-11.207,1.622,0.367,-1.433,-511,97,-1376
00:14:53.600,37.42682266,-122.17302704,33.700,-2700393.000,-4292632.000,3855138.000,-3.223,5.602,-10.676,1.380,1.047,-0.737,-541,8,-1388
00:14:53.600,37.42682266,-122.17302704,33.600,-2700393.000,-4292631.500,3855137.750,-2.394,4.434,-10.523,1.713,0.628,-0.537,-600,-65,-1398
00:14:53.700,37.42681885,-122.17302704,33.600,-2700393.000,-4292632.000,3855137.750,-1.353,3.014,-8.361,1.697,0.250,-0.244,-615,-167,-1406
00:14:53.700,37.42681885,-122.17302704,33.500,-2700393.000,-4292631.500,3855137.750,-1.712,1.630,-6.055,1.522,1.259,0.487,-643,-267,-1391
00:14:53.800,37.42682266,-122.17302704,33.500,-2700393.000,-4292631.500,3855138.000,-1.973,0.857,-4.827,1.366,1.357,0.335,-740,-356,-1353
00:14:53.800,37.42682266,-122.17302704,33.500,-2700393.000,-4292631.500,3855138.000,-0.733,0.790,-4.314,1.278,1.081,0.118,-808,-423,-1313
00:14:53.900,37.42682266,-122.17302704,33.500,-2700393.250,-4292631.500,3855137.750,-0.702,0.520,-2.064,0.548,1.707,0.162,-900,-487,-1278
00:14:53.900,37.42682266,-122.17302704,33.500,-2700393.250,-4292631.500,3855137.750,0.120,0.412,-5.243,0.460,0.973,-0.088,-986,-505,-1227
00:14:53.900,37.42682266,-122.17302704,33.500,-2700393.250,-4292631.500,3855137.750,1.760,-0.718,-4.341,0.229,0.642,-0.318,-1011,-517,-1215
00:14:54.000,37.42682266,-122.17302704,33.500,-2700393.250,-4292631.500,3855137.750,-1.877,0.048,-8.720,0.416,0.557,-0.870,-1050,-495,-1185
00:14:54.000,37.42682266,-122.17302704,33.500,-2700393.250,-4292631.500,3855137.750,2.109,-0.034,-8.916,0.508,0.240,-1.333,-1072,-443,-1180
00:14:54.100,37.42682266,-122.17303467,33.400,-2700393.250,-4292631.500,3855137.750,2.188,-0.606,-10.999,0.325,-0.455,-0.663,-1077,-423,-1195
00:14:54.200,37.42682266,-122.17303467,33.400,-2700393.250,-4292631.500,3855137.750,1.736,-0.836,-10.937,0.232,-0.722,-0.585,-1032,-402,-1200
00:14:54.200,37.42682266,-122.17303467,33.400,-2700393.250,-4292631.500,3855137.750,0.134,-0.848,-11.880,0.241,0.065,-0.292,-1011,-387,-1205
00:14:54.300,37.42682266,-122.17303467,33.400,-2700393.250,-4292631.500,3855137.750,1.542,-1.279,-9.622,0.071,0.247,0.022,-1030,-380,-1202
00:14:54.300,37.42682266,-122.17303467,33.400,-2700393.250,-4292631.500,3855137.750,1.152,-1.015,-9.474,0.087,0.188,0.395,-1057,-385,-1210
00:14:54.400,37.42682266,-122.17303467,33.400,-2700393.250,-4292631.500,3855137.750,1.250,-0.931,-8.040,0.009,-0.515,0.510,-1040,-400,-1185
00:14:54.400,37.42682266,-122.17303467,33.600,-2700393.250,-4292631.500,3855137.750,-0.259,-0.603,-8.399,0.403,-0.906,0.398,-1001,-412,-1215
00:14:54.500,37.42682266,-122.17303467,33.600,-2700393.250,-4292631.500,3855137.750,-0.122,-0.792,-9.191,0.163,-0.669,0.315,-948,-436,-1265
00:14:54.500,37.42682266,-122.17303467,33.700,-2700393.500,-4292631.500,3855138.000,-0.551,-0.309,-9.321,0.088,-0.313,0.260,-917,-438,-1271
00:14:54.600,37.42682266,-122.17303467,33.700,-2700393.500,-4292631.500,3855138.000,-1.195,-0.048,-9.852,-0.132,0.200,0.158,-892,-438,-1262
00:14:54.600,37.42682266,-122.17303467,33.600,-2700393.250,-4292631.500,3855138.000,-0.287,0.072,-9.823,-0.011,0.406,0.008,-930,-421,-1252
00:14:54.700,37.42682266,-122.17303467,33.600,-2700393.250,-4292631.500,3855137.750,0.211,0.388,-9.069,-0.011,0.250,-0.068,-942,-405,-1250
00:14:54.700,37.42682266,-122.17303467,33.700,-2700393.500,-4292631.500,3855138.000,0.271,0.553,-8.945,-0.016,0.065,0.016,-951,-400,-1255
00:14:54.800,37.42682266,-122.17303467,33.700,-2700393.250,-4292631.500,3855138.000,0.136,0.661,-9.000,0.101,0.154,0.016,-958,-382,-1247
00:14:54.800,37.42682266,-122.17303467,33.800,-2700393.500,-4292631.500,3855138.000,0.306,0.632,-9.191,0.232,0.147,0.019,-966,-387,-1225
00:14:54.900,37.42682266,-122.17303467,33.800,-2700393.500,-4292631.500,3855138.000,-0.129,0.467,-9.318,0.226,0.214,-0.050,-986,-407,-1227
00:14:54.900,37.42682266,-122.17303467,33.800,-2700393.500,-4292631.500,3855138.000,0.397,0.287,-9.323,0.223,0.074,-0.099,-986,-385,-1220
00:14:54.900,37.42682266,-122.17303467,33.800,-2700393.500,-4292631.500,3855138.000,0.371,0.397,-9.625,0.256,0.028,-0.087,-978,-395,-1215
00:14:55.000,37.42682266,-122.17303467,33.800,-2700393.500,-4292631.500,3855138.000,0.517,0.335,-9.479,0.224,0.135,-0.048,-991,-397,-1202
00:14:55.000,37.42682266,-122.17303467,33.800,-2700393.500,-4292631.500,3855138.000,0.484,0.419,-9.515,0.212,-0.007,-0.042,-1003,-390,-1217
00:14:55.100,37.42682266,-122.17303467,33.900,-2700393.500,-4292632.000,3855138.000,0.572,0.443,-9.560,0.136,0.054,-0.018,-996,-382,-1212
00:14:55.200,37.42682266,-122.17303467,33.900,-2700393.500,-4292632.000,3855138.000,0.553,0.409,-9.072,0.111,0.258,-0.015,-1023,-392,-1210
00:14:55.200,37.42682266,-122.17303467,33.900,-2700393.500,-4292632.000,3855138.000,1.530,-0.139,-5.851,0.039,0.751,0.096,-1037,-382,-1175
00:14:55.300,37.42682266,-122.17303467,33.900,-2700393.500,-4292631.500,3855138.000,1.331,0.074,-1.695,-0.406,1.201,0.423,-1103,-363,-1130
00:14:55.300,37.42682266,-122.17303467,33.900,-2700393.500,-4292631.500,3855138.000,0.060,-0.022,0.175,-0.199,1.116,0.519,-1171,-392,-1101
00:14:55.400,37.42682266,-122.17303467,33.900,-2700393.500,-4292631.500,3855138.000,0.172,0.069,0.012,-0.231,1.076,0.524,-1230,-380,-1048
00:14:55.400,37.42682266,-122.17303467,33.900,-2700393.500,-4292631.500,3855138.000,0.163,0.101,-0.136,-0.240,0.998,0.514,-1268,-400,-1011
00:14:55.500,37.42682266,-122.17303467,33.700,-2700393.500,-4292631.500,3855138.000,0.074,0.077,-0.484,-0.239,0.908,0.502,-1323,-423,-976
00:14:55.500,37.42682266,-122.17303467,33.700,-2700393.500,-4292631.500,3855138.000,0.060,0.050,-0.390,-0.213,0.799,0.484,-1362,-431,-937
00:14:55.600,37.42682266,-122.17303467,33.400,-2700393.250,-4292631.500,3855137.750,0.108,0.144,-0.498,-0.163,0.718,0.478,-1407,-461,-917
00:14:55.600,37.42682266,-122.17303467,33.400,-2700393.250,-4292631.500,3855137.750,0.283,-0.043,-0.515,-0.108,0.757,0.526,-1453,-520,-895
00:14:55.700,37.42682266,-122.17303467,33.200,-2700393.250,-4292631.000,3855137.750,13.987,4.049,-19.613,0.834,-3.165,0.710,-1510,-602,-907
00:14:55.700,37.42682266,-122.17303467,33.200,-2700393.250,-4292631.000,3855137.750,-11.710,1.970,-19.613,-1.402,0.863,0.070,-806,-695,-1450
00:14:55.800,37.42682266,-122.17303467,33.100,-2700393.250,-4292631.000,3855137.750,0.646,-0.069,1.109,-1.180,4.366,-0.045,-1060,-580,-1306
00:14:55.800,37.42682266,-122.17303467,33.100,-2700393.250,-4292631.000,3855137.750,0.297,0.084,0.520,-0.999,4.366,-0.109,-1328,-485,-1068
00:14:55.900,37.42682266,-122.17303467,32.900,-2700393.000,-4292631.000,3855137.750,0.491,0.093,0.357,-0.854,4.366,-0.152,-1557,-426,-756
00:14:55.900,37.42682266,-122.17303467,32.900,-2700393.000,-4292631.000,3855137.750,0.445,0.239,0.589,-0.712,4.366,-0.185,-1682,-380,-441
00:14:55.900,37.42682266,-122.17303467,32.900,-2700393.000,-4292631.000,3855137.750,0.505,0.098,0.261,-0.578,4.366,-0.215,-1763,-351,-81
00:14:56.000,37.42682266,-122.17303467,32.900,-2700393.000,-4292631.000,3855137.750,0.421,0.153,0.113,-0.383,4.366,-0.198,-1756,-333,235
00:14:56.100,37.42682266,-122.17303467,32.900,-2700393.000,-4292631.000,3855137.750,17.035,5.684,-5.859,2.267,0.321,0.981,-1751,-333,446
00:14:56.100,37.42682266,-122.17303467,32.800,-2700393.000,-4292631.000,3855137.500,19.613,14.085,2.926,1.202,-4.366,4.096,-1806,-526,310
00:14:56.200,37.42682648,-122.17303467,32.400,-2700392.750,-4292630.500,3855137.500,8.195,1.386,0.941,-0.065,-4.366,0.798,-1778,-710,-240
00:14:56.200,37.42682648,-122.17303467,32.400,-2700392.750,-4292630.500,3855137.500,0.417,-0.251,1.053,0.236,-4.366,0.157,-1535,-746,-855
00:14:56.300,37.42682266,-122.17303467,32.800,-2700393.000,-4292631.000,3855137.750,-0.273,0.132,1.781,0.418,-4.366,0.165,-1021,-751,-1326
00:14:56.300,37.42682266,-122.17303467,32.800,-2700393.000,-4292631.000,3855137.750,-0.510,-0.249,2.325,0.377,-4.366,0.189,-351,-751,-1512
00:14:56.400,37.42682266,-122.17303467,32.900,-2700393.000,-4292631.000,3855137.500,-19.613,-19.613,19.613,-0.737,2.081,-1.870,3,-746,-1482
00:14:56.400,37.42682266,-122.17303467,32.900,-2700393.000,-4292631.000,3855137.500,0.007,2.356,-10.436,-1.418,4.313,0.132,-333,-643,-1542
00:14:56.500,37.42682266,-122.17303467,32.700,-2700393.000,-4292630.500,3855137.500,17.341,-0.816,-19.613,0.302,4.366,-1.128,-666,-690,-1487
00:14:56.500,37.42682266,-122.17303467,32.700,-2700393.000,-4292630.500,3855137.500,-2.784,3.699,-2.394,0.269,0.572,-1.294,-937,-673,-1338
00:14:56.600,37.42682266,-122.17303467,32.800,-2700393.000,-4292631.000,3855137.500,-2.586,0.567,-12.902,0.126,0.822,-0.692,-1011,-636,-1318
00:14:56.600,37.42682266,-122.17303467,32.800,-2700393.000,-4292631.000,3855137.500,-0.979,0.527,-12.744,-0.027,0.857,-0.482,-1050,-605,-1286
00:14:56.700,37.42682266,-122.17303467,32.700,-2700393.000,-4292631.000,3855137.500,-0.390,-0.603,-6.005,0.116,0.157,-0.090,-1085,-605,-1271
00:14:56.700,37.42682266,-122.17303467,32.700,-2700393.000,-4292631.000,3855137.500,0.034,2.227,-12.814,0.379,-0.333,-0.061,-1100,-592,-1273
00:14:56.800,37.42682266,-122.17303467,32.700,-2700393.000,-4292631.000,3855137.500,0.589,0.476,-10.815,0.120,0.124,-0.013,-1095,-597,-1273
00:14:56.800,37.42682266,-122.17303467,32.700,-2700393.000,-4292631.000,3855137.500,0.168,0.706,-10.068,0.165,0.036,-0.018,-1090,-597,-1276
00:14:56.900,37.42682266,-122.17303467,32.700,-2700393.000,-4292631.000,3855137.500,0.223,0.651,-9.938,0.164,0.008,-0.023,-1102,-602,-1278
00:14:56.900,37.42682266,-122.17303467,32.700,-2700393.000,-4292631.000,3855137.500,0.122,0.644,-9.953,0.172,0.002,-0.019,-1097,-602,-1270
00:14:56.900,37.42682266,-122.17303467,32.700,-2700393.000,-4292631.000,3855137.500,0.177,0.589,-9.783,0.176,-0.005,-0.020,-1082,-607,-1257
00:14:57.000,37.42682266,-122.17303467,32.600,-2700393.000,-4292630.500,3855137.500,0.113,0.570,-9.625,0.174,0.000,-0.020,-1100,-597,-1262
00:14:57.100,37.42682266,-122.17303467,32.600,-2700393.000,-4292630.500,3855137.500,0.060,0.642,-9.641,0.174,0.008,-0.019,-1095,-597,-1281
00:14:57.100,37.42682266,-122.17303467,32.600,-2700393.000,-4292630.500,3855137.500,0.043,0.611,-9.538,0.168,0.014,-0.020,-1080,-592,-1273
00:14:57.200,37.42682266,-122.17303467,32.600,-2700393.000,-4292630.500,3855137.500,0.113,0.596,-9.802,0.180,-0.001,-0.020,-1085,-590,-1257
00:14:57.200,37.42682266,-122.17303467,32.600,-2700393.000,-4292630.500,3855137.500,0.156,0.675,-9.766,0.171,-0.002,-0.021,-1080,-580,-1267
00:14:57.300,37.42682266,-122.17303467,32.600,-2700393.000,-4292630.500,3855137.250,0.165,0.589,-9.689,0.174,0.002,-0.021,-1087,-590,-1278
00:14:57.300,37.42682266,-122.17303467,32.600,-2700393.000,-4292630.500,3855137.250,0.120,0.642,-9.701,0.175,-0.000,-0.020,-1085,-580,-1270
00:14:57.400,37.42682266,-122.17303467,32.600,-2700393.000,-4292630.500,3855137.500,0.129,0.622,-9.730,0.173,-0.001,-0.023,-1087,-585,-1265
00:14:57.400,37.42682266,-122.17303467,32.600,-2700393.000,-4292630.500,3855137.500,0.139,0.661,-9.718,0.177,-0.003,-0.019,-1080,-595,-1270
00:14:57.500,37.42682266,-122.17303467,32.600,-2700393.000,-4292630.500,3855137.500,0.139,0.615,-9.790,0.173,-0.004,-0.021,-1097,-585,-1270
00:14:57.500,37.42682266,-122.17303467,32.600,-2700393.000,-4292630.500,3855137.500,-0.378,1.499,-10.604,0.195,0.016,-0.017,-1090,-597,-1262
00:14:57.600,37.42682266,-122.17303467,32.600,-2700393.000,-4292630.500,3855137.500,0.362,0.381,-9.912,0.170,0.008,-0.003,-1082,-600,-1260
00:14:57.600,37.42682266,-122.17303467,32.600,-2700393.000,-4292630.500,3855137.500,0.663,-0.302,-8.440,0.010,-0.050,0.002,-1075,-595,-1286
00:14:57.700,37.42682266,-122.17303467,32.600,-2700393.000,-4292630.500,3855137.500,1.812,2.923,-13.812,0.304,-1.521,-0.293,-1035,-580,-1301
00:14:57.700,37.42682266,-122.17303467,32.600,-2700393.000,-4292630.500,3855137.500,-1.721,2.222,-10.657,0.549,-2.682,-0.486,-922,-587,-1366
00:14:57.800,37.42682266,-122.17303467,32.600,-2700393.000,-4292630.500,3855137.500,-4.223,-1.446,-11.485,0.310,-3.269,-0.754,-730,-575,-1435
00:14:57.800,37.42682266,-122.17303467,32.600,-2700393.000,-4292630.500,3855137.500,-7.508,1.322,-12.795,0.506,-1.966,-0.833,-521,-558,-1492
00:14:57.900,37.42682266,-122.17303467,32.700,-2700393.000,-4292630.500,3855137.500,-7.582,-0.362,-16.388,0.274,3.492,-0.079,-506,-556,-1510
00:14:57.900,37.42682266,-122.17303467,32.700,-2700393.000,-4292630.500,3855137.500,-2.514,-1.776,-12.541,0.397,4.327,-0.113,-833,-585,-1396
00:14:57.900,37.42682266,-122.17303467,32.700,-2700393.000,-4292630.500,3855137.500,-1.611,-2.215,-9.986,0.406,1.083,-0.075,-988,-605,-1308
00:14:58.000,37.42682266,-122.17303467,32.700,-2700393.000,-4292630.500,3855137.500,-2.720,-1.963,-9.412,0.239,-0.928,-0.455,-973,-587,-1321
00:14:58.100,37.42682266,-122.17303467,32.900,-2700393.250,-4292631.000,3855137.500,-2.914,-1.204,-9.426,0.123,-0.056,-0.447,-927,-577,-1318
00:14:58.100,37.42682266,-122.17303467,32.900,-2700393.250,-4292631.000,3855137.500,-1.915,-1.358,-9.232,0.191,1.312,-0.210,-956,-563,-1296
00:14:58.200,37.42682266,-122.17303467,33.100,-2700393.250,-4292631.000,3855137.500,0.527,-1.336,-9.431,0.193,0.763,-0.078,-996,-551,-1250
00:14:58.200,37.42682266,-122.17303467,33.100,-2700393.250,-4292631.000,3855137.500,0.108,-0.079,-9.534,0.441,-0.205,-0.132,-1006,-561,-1227
00:14:58.300,37.42682266,-122.17303467,33.400,-2700393.500,-4292631.000,3855137.750,-0.117,-0.318,-9.404,0.388,-1.212,-0.150,-971,-556,-1267
00:14:58.300,37.42682266,-122.17303467,33.400,-2700393.500,-4292631.000,3855137.750,0.139,0.247,-8.959,0.117,-0.117,0.014,-907,-553,-1288
00:14:58.400,37.42682266,-122.17303467,33.600,-2700393.500,-4292631.500,3855138.000,0.939,1.156,-7.111,-0.475,0.970,0.388,-920,-538,-1252
00:14:58.400,37.42682266,-122.17303467,33.600,-2700393.500,-4292631.500,3855138.000,2.682,1.537,-7.728,-0.538,0.903,0.521,-986,-490,-1227
00:14:58.500,37.42682266,-122.17303467,34.000,-2700393.500,-4292631.500,3855138.250,1.678,0.855,-6.627,-0.407,0.203,0.565,-1023,-495,-1210
00:14:58.500,37.42682266,-122.17303467,34.000,-2700393.500,-4292631.500,3855138.250,2.454,1.056,-7.367,-0.132,-0.384,0.439,-1016,-477,-1207
00:14:58.600,37.42682266,-122.17303467,34.200,-2700393.500,-4292632.000,3855138.500,1.140,1.022,-6.967,0.110,-0.813,-0.124,-953,-480,-1240
00:14:58.600,37.42682266,-122.17303467,34.200,-2700393.500,-4292632.000,3855138.500,1.288,0.716,-7.254,0.210,-0.848,-0.116,-907,-477,-1245
00:14:58.700,37.42682266,-122.17303467,34.200,-2700393.500,-4292632.000,3855138.500,-0.505,0.273,-7.812,-0.014,-0.234,-0.192,-882,-456,-1267
00:14:58.700,37.42682266,-122.17303467,34.200,-2700393.500,-4292632.000,3855138.500,0.101,0.809,-8.112,-0.201,0.191,-0.220,-880,-443,-1270
00:14:58.800,37.42682266,-122.17303467,34.300,-2700393.500,-4292632.000,3855138.500,0.520,1.235,-8.440,-0.050,0.177,-0.384,-887,-412,-1276
00:14:58.800,37.42682266,-122.17303467,34.300,-2700393.500,-4292632.000,3855138.500,0.335,1.154,-8.835,0.121,-0.106,-0.414,-892,-377,-1260
00:14:58.900,37.42682266,-122.17303467,34.400,-2700393.500,-4292632.000,3855138.500,-0.175,1.209,-8.480,0.225,-0.103,-0.411,-885,-361,-1276
00:14:58.900,37.42682266,-122.17303467,34.400,-2700393.500,-4292632.000,3855138.500,-0.017,0.953,-9.553,0.145,0.029,-0.283,-882,-358,-1271
00:14:58.900,37.42682266,-122.17303467,34.400,-2700393.500,-4292632.000,3855138.500,-0.026,0.972,-9.419,0.242,0.045,-0.234,-885,-343,-1265
00:14:59.000,37.42682266,-122.17303467,34.500,-2700393.750,-4292632.000,3855138.500,0.144,0.943,-9.629,0.092,0.054,-0.105,-890,-348,-1270
00:14:59.100,37.42682266,-122.17303467,34.500,-2700393.750,-4292632.000,3855138.500,-0.204,1.219,-10.257,0.183,-0.051,-0.106,-885,-333,-1270
00:14:59.100,37.42682266,-122.17303467,34.500,-2700393.750,-4292632.000,3855138.500,0.175,0.845,-10.690,0.302,-0.145,-0.054,-890,-336,-1270
00:14:59.200,37.42682266,-122.17303467,34.500,-2700393.750,-4292632.000,3855138.500,-0.010,0.972,-10.688,0.359,-0.126,0.045,-870,-341,-1278
00:14:59.200,37.42682266,-122.17303467,34.500,-2700393.750,-4292632.000,3855138.500,-0.218,0.809,-10.384,0.430,-0.063,0.050,-853,-353,-1271
00:14:59.300,37.42682266,-122.17303467,34.500,-2700393.750,-4292632.000,3855138.500,0.115,0.517,-9.838,0.487,0.147,0.067,-861,-377,-1271
00:14:59.300,37.42682266,-122.17303467,34.500,-2700393.750,-4292632.000,3855138.500,-0.251,0.515,-8.801,0.436,0.378,0.133,-872,-400,-1255
00:14:59.400,37.42682266,-122.17303467,34.500,-2700393.750,-4292632.000,3855138.500,-0.373,0.304,-8.475,0.220,0.314,0.127,-902,-415,-1260
00:14:59.400,37.42682266,-122.17303467,34.500,-2700393.750,-4292632.000,3855138.500,-0.115,0.627,-7.010,0.068,0.341,0.064,-915,-416,-1242
00:14:59.500,37.42682266,-122.17303467,34.600,-2700393.750,-4292632.000,3855138.750,0.038,0.175,-2.816,-0.222,0.482,0.031,-935,-412,-1220
00:14:59.500,37.42682266,-122.17303467,34.600,-2700393.750,-4292632.000,3855138.750,0.359,0.031,-0.792,-0.105,0.610,0.086,-981,-392,-1222
00:14:59.600,37.42682266,-122.17303467,34.600,-2700393.750,-4292632.000,3855138.750,0.089,0.012,0.168,-0.097,0.605,0.114,-1013,-395,-1210
00:14:59.600,37.42682266,-122.17303467,34.600,-2700393.750,-4292632.000,3855138.750,0.192,0.048,0.005,-0.130,0.577,0.119,-1050,-377,-1182
00:14:59.700,37.42682266,-122.17303467,34.600,-2700393.750,-4292632.000,3855138.750,0.077,0.019,-0.098,-0.150,0.532,0.118,-1075,-358,-1150
00:14:59.700,37.42682266,-122.17303467,34.600,-2700393.750,-4292632.000,3855138.750,0.108,0.067,-0.330,-0.161,0.474,0.117,-1116,-367,-1140
00:14:59.800,37.42682266,-122.17302704,34.600,-2700393.500,-4292632.000,3855138.750,0.050,0.072,-0.419,-0.151,0.409,0.127,-1163,-365,-1142
00:14:59.800,37.42682266,-122.17302704,34.600,-2700393.500,-4292632.000,3855138.750,0.855,0.608,-3.457,-0.075,0.209,0.139,-1190,-380,-1142
00:14:59.900,37.42682648,-122.17302704,34.400,-2700393.500,-4292632.000,3855138.750,-0.117,0.778,-3.886,0.028,0.100,0.167,-1227,-416,-1165
00:14:59.900,37.42682648,-122.17302704,34.400,-2700393.500,-4292632.000,3855138.750,-19.422,7.302,-19.613,0.659,-1.654,0.409,-976,-572,-1398
00:15:00.000,37.42682648,-122.17302704,34.400,-2700393.500,-4292632.000,3855138.750,0.862,0.431,0.685,-1.831,2.754,0.179,-1042,-477,-1316
00:15:00.000,37.42682648,-122.17302704,34.500,-2700393.500,-4292632.000,3855138.750,0.539,0.261,0.405,-1.782,2.687,0.132,-1197,-353,-1197
00:15:00.100,37.42682648,-122.17302704,34.400,-2700393.250,-4292632.000,3855138.750,0.591,0.151,0.254,-1.752,2.589,0.096,-1340,-241,-1046
00:15:00.100,37.42682648,-122.17302704,34.400,-2700393.250,-4292632.000,3855138.750,0.524,0.290,0.127,-1.708,2.435,0.084,-1456,-156,-880
00:15:00.200,37.42682648,-122.17302704,34.500,-2700393.250,-4292632.000,3855138.750,0.529,0.297,0.065,-1.637,2.302,0.074,-1557,-92,-713
00:15:00.200,37.42682648,-122.17302704,34.500,-2700393.250,-4292632.000,3855138.750,0.551,0.543,-1.135,-1.500,2.097,0.052,-1633,-52,-537
00:15:00.300,37.42682266,-122.17301941,34.400,-2700393.000,-4292632.500,3855138.500,15.253,10.539,-12.759,1.758,-2.294,0.473,-1680,-38,-510
00:15:00.300,37.42682266,-122.17301941,34.400,-2700393.000,-4292632.500,3855138.500,18.780,17.188,-15.304,4.366,-4.366,1.950,-1502,-316,-983
