=~=~=~=~=~=~=~=~=~=~=~= PuTTY log 2025.11.17 16:06:41 =~=~=~=~=~=~=~=~=~=~=~=
UTC,Lat,Long,Alt,ECEF_X,ECEF_Y,ECEF_Z,ax,ay,az,gx,gy,gz,magx,magy,magz
NA,,,,,,,0.196,0.527,-8.708,-0.059,0.654,-0.028,0,0,0
NA,,,,,,,0.050,0.828,-9.041,-0.303,-0.139,-0.053,193,146,-1142
00:00:00.000,,,,,,,-0.165,1.369,-10.240,-0.305,-0.270,-0.063,211,180,-1125
00:00:00.000,,,,,,,0.469,0.555,-9.934,0.183,-0.001,-0.020,287,-248,-1177
00:00:00.000,,,,,,,0.378,0.543,-9.943,0.182,-0.003,-0.018,297,-241,-1192
00:00:00.000,,,,,,,0.433,0.508,-9.902,0.181,-0.002,-0.015,282,-251,-1187
00:00:00.000,,,,,,,0.419,0.536,-9.948,0.179,-0.001,-0.016,280,-258,-1177
00:00:00.000,,,,,,,0.426,0.579,-9.869,0.179,-0.005,-0.019,282,-236,-1180
00:00:00.000,,,,,,,0.484,0.575,-9.807,0.183,-0.002,-0.017,290,-251,-1185
00:00:00.000,,,,,,,0.366,0.548,-9.907,0.182,-0.002,-0.019,300,-243,-1177
00:00:00.000,,,,,,,0.395,0.503,-9.828,0.180,-0.006,-0.017,285,-251,-1180
00:00:00.000,,,,,,,0.397,0.515,-10.036,0.181,-0.004,-0.018,290,-233,-1182
00:00:00.000,,,,,,,0.462,0.541,-9.893,0.179,-0.002,-0.018,295,-248,-1177
00:00:00.000,,,,,,,0.448,0.512,-9.910,0.182,-0.001,-0.018,277,-246,-1180
00:00:00.000,,,,,,,0.445,0.536,-9.960,0.183,-0.001,-0.021,282,-251,-1185
00:00:00.000,,,,,,,0.469,0.491,-9.974,0.182,-0.004,-0.019,282,-251,-1185
00:00:00.000,,,,,,,0.378,0.524,-9.787,0.183,-0.004,-0.016,270,-251,-1177
00:00:00.000,,,,,,,0.412,0.551,-9.919,0.179,-0.005,-0.015,277,-241,-1182
00:00:00.000,,,,,,,0.400,0.527,-9.919,0.182,-0.002,-0.019,287,-256,-1175
00:00:00.000,,,,,,,0.314,0.584,-9.979,0.180,0.001,-0.018,292,-243,-1182
00:00:00.000,,,,,,,0.441,0.510,-9.934,0.181,-0.005,-0.016,292,-251,-1172
00:00:00.000,,,,,,,0.405,0.522,-9.890,0.185,-0.003,-0.019,270,-243,-1192
00:00:00.000,,,,,,,0.417,0.541,-9.888,0.183,-0.004,-0.016,282,-251,-1177
00:00:00.000,,,,,,,0.417,0.522,-9.977,0.184,-0.004,-0.020,282,-258,-1162
00:00:00.000,,,,,,,0.414,0.529,-9.871,0.184,-0.002,-0.016,272,-246,-1187
00:00:00.000,,,,,,,0.424,0.536,-9.953,0.181,-0.005,-0.016,305,-233,-1177
00:00:00.000,,,,,,,0.429,0.510,-9.900,0.182,-0.001,-0.019,272,-236,-1175
00:00:00.000,,,,,,,0.371,0.543,-9.852,0.181,-0.004,-0.015,270,-248,-1190
00:00:00.000,,,,,,,0.402,0.546,-9.938,0.180,-0.002,-0.017,282,-241,-1177
00:00:00.000,,,,,,,0.371,0.539,-9.907,0.180,-0.006,-0.018,277,-251,-1175
00:00:00.000,,,,,,,0.338,0.532,-9.929,0.181,-0.009,-0.018,275,-256,-1177
00:00:00.000,,,,,,,0.481,0.520,-9.888,0.180,-0.004,-0.018,290,-236,-1172
00:00:00.000,,,,,,,0.476,0.563,-9.859,0.184,-0.004,-0.020,292,-246,-1165
00:00:00.000,,,,,,,0.450,0.567,-9.977,0.182,-0.003,-0.016,287,-246,-1165
00:00:00.000,,,,,,,0.433,0.567,-9.845,0.181,-0.008,-0.019,282,-231,-1150
00:00:00.000,,,,,,,0.438,0.558,-9.795,0.180,-0.003,-0.017,280,-238,-1142
00:00:00.000,,,,,,,0.347,0.532,-9.864,0.181,-0.000,-0.019,270,-236,-1162
00:00:00.000,,,,,,,0.431,0.587,-9.890,0.177,-0.005,-0.016,275,-226,-1167
00:00:00.000,,,,,,,0.426,0.500,-9.886,0.181,-0.003,-0.015,275,-246,-1170
00:00:00.000,,,,,,,0.335,0.546,-9.900,0.183,-0.005,-0.020,277,-231,-1165
00:00:00.000,,,,,,,0.388,0.570,-9.905,0.180,0.001,-0.018,265,-241,-1160
00:00:00.000,,,,,,,0.402,0.575,-9.886,0.181,-0.004,-0.017,265,-236,-1180
00:00:00.000,,,,,,,0.357,0.520,-9.871,0.181,0.000,-0.017,267,-241,-1145
00:00:00.000,,,,,,,0.397,0.527,-9.931,0.184,-0.005,-0.015,257,-236,-1170
00:00:00.000,,,,,,,0.460,0.591,-9.922,0.181,0.001,-0.016,262,-236,-1167
00:00:00.000,,,,,,,0.476,0.558,-9.955,0.182,-0.003,-0.019,265,-241,-1167
00:00:00.000,,,,,,,0.381,0.567,-9.876,0.184,-0.000,-0.019,260,-243,-1160
00:00:00.000,,,,,,,0.421,0.534,-9.936,0.179,-0.006,-0.018,277,-251,-1162
00:00:00.000,,,,,,,0.385,0.512,-9.912,0.181,-0.003,-0.015,272,-253,-1152
00:00:00.000,,,,,,,0.421,0.534,-10.046,0.179,0.000,-0.018,272,-243,-1165
00:00:00.000,,,,,,,0.405,0.543,-9.725,0.176,0.001,-0.016,272,-243,-1152
00:00:00.000,,,,,,,0.457,0.515,-9.838,0.179,0.001,-0.018,272,-241,-1167
00:00:00.000,,,,,,,0.476,0.503,-10.005,0.181,-0.002,-0.015,275,-233,-1160
00:00:00.000,,,,,,,0.472,0.577,-9.890,0.181,-0.004,-0.018,277,-241,-1162
00:00:00.000,,,,,,,0.347,0.565,-9.969,0.182,0.000,-0.017,262,-236,-1170
00:00:00.000,,,,,,,0.397,0.453,-9.895,0.179,-0.002,-0.019,262,-243,-1167
00:00:00.000,,,,,,,0.393,0.474,-9.845,0.179,-0.003,-0.018,270,-238,-1165
00:00:00.000,,,,,,,0.393,0.529,-9.974,0.182,-0.001,-0.019,252,-256,-1160
00:00:00.000,,,,,,,0.431,0.596,-9.953,0.181,-0.001,-0.017,267,-248,-1157
00:00:00.000,,,,,,,0.405,0.505,-9.807,0.180,-0.004,-0.017,272,-248,-1167
00:00:00.000,,,,,,,0.405,0.486,-9.867,0.181,-0.003,-0.018,265,-253,-1177
00:00:00.000,,,,,,,0.373,0.551,-9.867,0.180,-0.001,-0.015,267,-251,-1170
00:00:00.000,,,,,,,0.395,0.608,-10.444,0.188,-0.010,-0.019,270,-248,-1165
00:00:00.000,,,,,,,0.383,0.596,-9.941,0.182,0.003,-0.020,275,-248,-1167
00:00:00.000,,,,,,,0.474,0.476,-9.768,0.187,-0.006,-0.018,277,-238,-1170
00:00:00.000,,,,,,,0.417,0.481,-9.912,0.178,-0.003,-0.015,277,-251,-1180
00:00:00.000,,,,,,,0.407,0.520,-10.135,0.178,-0.001,-0.021,270,-246,-1165
00:00:00.000,,,,,,,0.508,0.503,-9.979,0.182,-0.003,-0.018,275,-246,-1170
00:00:00.000,,,,,,,0.376,0.555,-9.835,0.181,-0.001,-0.017,285,-233,-1160
00:00:00.000,,,,,,,0.429,0.620,-9.871,0.182,-0.006,-0.019,272,-256,-1172
00:00:00.000,,,,,,,0.385,0.594,-9.924,0.185,-0.009,-0.018,285,-238,-1160
00:00:00.000,,,,,,,0.467,0.498,-9.931,0.182,-0.005,-0.018,267,-241,-1172
00:00:00.000,,,,,,,0.462,0.565,-9.799,0.181,-0.002,-0.019,280,-256,-1167
00:00:00.000,,,,,,,0.462,0.532,-9.907,0.181,-0.003,-0.018,275,-253,-1170
00:00:00.000,,,,,,,0.419,0.481,-9.768,0.179,-0.001,-0.018,267,-253,-1175
00:00:00.000,,,,,,,0.407,0.524,-9.962,0.184,0.000,-0.018,267,-241,-1172
00:00:00.000,,,,,,,0.328,0.491,-9.864,0.181,-0.001,-0.017,277,-248,-1172
00:00:00.000,,,,,,,0.441,0.591,-9.893,0.182,-0.003,-0.016,265,-243,-1177
00:00:00.000,,,,,,,0.362,0.517,-9.900,0.180,-0.005,-0.017,270,-258,-1175
00:00:00.000,,,,,,,0.388,0.457,-9.682,0.181,0.001,-0.020,272,-251,-1170
00:00:00.000,,,,,,,0.366,0.491,-9.867,0.181,0.001,-0.019,270,-248,-1167
00:00:00.000,,,,,,,0.369,0.500,-9.986,0.179,-0.004,-0.017,270,-253,-1177
00:00:00.000,,,,,,,0.426,0.536,-9.864,0.182,-0.004,-0.017,267,-246,-1175
00:00:00.000,,,,,,,0.393,0.570,-9.881,0.179,-0.001,-0.020,270,-251,-1175
00:00:00.000,,,,,,,0.436,0.462,-9.895,0.181,-0.004,-0.017,275,-243,-1162
00:00:00.000,,,,,,,0.407,0.414,-9.852,0.183,0.000,-0.017,265,-256,-1190
00:00:00.000,,,,,,,0.424,0.553,-9.900,0.182,-0.003,-0.018,275,-246,-1167
00:00:00.000,,,,,,,0.378,0.625,-9.960,0.182,-0.006,-0.018,275,-253,-1170
00:00:00.000,,,,,,,0.417,0.560,-9.895,0.182,-0.003,-0.020,277,-248,-1182
00:00:00.000,,,,,,,0.407,0.484,-9.931,0.181,-0.003,-0.018,265,-251,-1187
00:00:00.000,,,,,,,0.467,0.565,-9.926,0.180,-0.004,-0.017,270,-243,-1172
00:00:00.000,,,,,,,0.414,0.608,-9.874,0.181,-0.004,-0.018,277,-243,-1162
00:00:00.000,,,,,,,0.441,0.457,-9.948,0.183,-0.007,-0.019,267,-241,-1165
00:00:00.000,,,,,,,0.409,0.527,-9.962,0.180,-0.001,-0.016,280,-248,-1162
00:00:00.000,,,,,,,0.350,0.543,-9.730,0.181,-0.004,-0.020,277,-246,-1167
00:00:00.000,,,,,,,0.412,0.524,-9.902,0.183,-0.001,-0.015,265,-248,-1157
00:00:00.000,,,,,,,0.469,0.529,-9.943,0.180,-0.001,-0.015,272,-251,-1165
00:00:00.000,,,,,,,0.385,0.627,-10.020,0.183,-0.001,-0.021,277,-248,-1180
00:00:00.000,,,,,,,0.453,0.474,-10.029,0.182,-0.003,-0.015,275,-241,-1172
00:00:00.000,,,,,,,0.357,0.555,-10.010,0.180,-0.003,-0.018,282,-241,-1165
00:00:00.000,,,,,,,0.393,0.570,-9.991,0.181,-0.002,-0.021,270,-243,-1182
00:00:00.000,,,,,,,0.369,0.481,-9.876,0.179,-0.003,-0.019,272,-243,-1170
00:00:00.000,,,,,,,0.381,0.529,-9.960,0.179,-0.001,-0.015,265,-258,-1160
00:00:00.000,,,,,,,0.350,0.510,-9.883,0.181,-0.007,-0.018,272,-262,-1160
00:00:00.000,,,,,,,0.385,0.484,-9.981,0.183,-0.003,-0.019,267,-251,-1157
00:00:00.000,,,,,,,0.328,0.534,-9.967,0.180,0.000,-0.016,275,-248,-1165
00:00:00.000,,,,,,,0.364,0.474,-9.761,0.183,0.000,-0.017,272,-241,-1175
00:00:00.000,,,,,,,0.419,0.589,-9.847,0.184,-0.003,-0.020,260,-260,-1170
00:00:00.000,,,,,,,0.412,0.570,-9.893,0.170,0.017,-0.018,257,-258,-1155
00:00:00.000,,,,,,,0.424,0.625,-9.840,0.175,0.006,-0.015,228,-260,-1150
00:00:00.000,,,,,,,0.345,0.551,-9.910,0.186,-0.009,-0.019,161,-331,-1111
00:00:00.000,,,,,,,0.457,0.543,-9.969,0.176,0.003,-0.019,31,-541,-902
00:00:00.000,,,,,,,0.472,0.548,-9.883,0.185,-0.010,-0.018,140,-1135,-525
00:00:00.000,,,,,,,0.433,0.476,-9.881,0.183,-0.006,-0.018,798,-1918,-617
00:00:00.000,,,,,,,1.056,-2.806,-9.936,0.170,0.011,-0.049,1426,-2137,-1117
00:00:00.000,,,,,,,0.371,0.809,-9.864,0.194,-0.008,-0.158,1443,-1996,-1308
00:00:00.000,,,,,,,1.094,0.251,-9.926,0.158,0.007,0.108,1451,-2060,-1117
00:00:00.000,,,,,,,0.984,-0.699,-9.936,0.161,-0.021,0.478,1638,-2180,-976
00:00:00.000,,,,,,,0.505,-0.493,-9.883,0.165,-0.018,0.431,1963,-2291,-940
00:00:00.000,,,,,,,0.309,0.098,-9.878,0.177,-0.019,0.302,2238,-2370,-905
00:00:00.000,,,,,,,-0.060,1.211,-9.979,0.163,0.002,0.100,2363,-2372,-907
00:00:00.000,,,,,,,-0.220,1.920,-9.874,0.183,0.004,-0.071,2431,-2423,-880
00:00:00.000,,,,,,,0.110,1.788,-9.773,0.222,-0.011,-0.195,2383,-2408,-915
00:00:00.000,,,,,,,0.560,1.204,-9.773,0.200,0.002,-0.281,2315,-2331,-1023
00:00:00.000,,,,,,,0.649,0.637,-9.814,0.192,0.001,-0.169,2228,-2218,-1276
00:00:00.000,,,,,,,0.364,0.632,-9.960,0.188,-0.002,-0.017,2091,-1935,-1598
00:00:00.000,,,,,,,0.395,0.565,-9.965,0.186,-0.004,-0.017,1890,-1598,-1820
00:00:00.000,,,,,,,0.546,0.524,-9.622,0.162,-0.019,-0.020,1633,-1286,-1875
00:00:00.000,,,,,,,0.225,0.596,-9.335,0.176,0.001,-0.015,1537,-1183,-1787
00:00:00.000,,,,,,,0.445,0.498,-9.871,0.183,-0.000,-0.020,1530,-1196,-1567
00:00:00.000,,,,,,,0.376,0.594,-9.843,0.182,-0.000,-0.020,1497,-1320,-1187
00:00:00.000,,,,,,,0.467,0.505,-9.819,0.183,-0.007,-0.017,1276,-1457,-716
00:00:00.000,,,,,,,0.419,0.536,-9.847,0.185,-0.005,-0.017,727,-1315,-297
00:00:00.000,,,,,,,0.429,0.493,-9.931,0.183,-0.006,-0.017,145,-876,-411
00:00:00.000,,,,,,,0.457,0.500,-9.814,0.184,-0.011,-0.018,-18,-500,-847
00:00:00.000,,,,,,,0.431,0.541,-10.068,0.181,-0.000,-0.020,87,-367,-1127
00:00:00.000,,,,,,,0.512,0.364,-11.001,0.172,-0.011,-0.019,196,-326,-1155
00:00:00.000,,,,,,,0.376,0.553,-9.804,0.179,-0.005,-0.017,228,-313,-1155
00:00:00.000,,,,,,,0.467,0.486,-9.953,0.181,-0.004,-0.021,252,-302,-1108
00:00:00.000,,,,,,,0.450,0.503,-9.931,0.182,-0.003,-0.016,245,-287,-1127
00:00:00.000,,,,,,,0.460,0.529,-9.900,0.183,-0.001,-0.017,247,-272,-1096
00:00:00.000,,,,,,,0.469,0.498,-9.821,0.180,-0.001,-0.017,240,-260,-1096
00:00:00.000,,,,,,,0.409,0.491,-9.883,0.183,-0.005,-0.016,237,-231,-1112
00:00:00.000,,,,,,,0.393,0.560,-9.946,0.179,-0.004,-0.015,245,-241,-1088
00:00:00.000,,,,,,,0.390,0.517,-9.871,0.180,-0.001,-0.018,255,-231,-1115
00:00:00.000,,,,,,,0.400,0.498,-9.917,0.184,-0.009,-0.017,250,-228,-1096
00:00:00.000,,,,,,,0.364,0.548,-9.967,0.181,-0.003,-0.018,265,-226,-1106
00:00:00.000,,,,,,,0.453,0.515,-9.953,0.182,-0.003,-0.016,267,-221,-1098
00:00:00.000,,,,,,,0.421,0.522,-9.840,0.179,-0.004,-0.018,267,-228,-1120
00:00:00.000,,,,,,,0.402,0.520,-9.955,0.181,-0.004,-0.019,267,-226,-1101
00:00:00.000,,,,,,,0.350,0.510,-9.926,0.183,-0.005,-0.018,267,-236,-1117
00:00:00.000,,,,,,,0.381,0.498,-9.902,0.180,-0.005,-0.017,267,-236,-1108
00:00:00.000,,,,,,,0.436,0.572,-9.859,0.181,-0.000,-0.017,272,-241,-1112
00:00:00.000,,,,,,,0.409,0.517,-9.948,0.184,-0.001,-0.019,270,-248,-1111
00:00:00.000,,,,,,,0.388,0.534,-9.910,0.181,0.001,-0.019,280,-246,-1115
00:00:00.000,,,,,,,0.318,0.517,-9.888,0.180,-0.003,-0.018,275,-228,-1115
00:00:00.000,,,,,,,0.323,0.479,-9.948,0.182,0.001,-0.018,267,-243,-1115
00:00:00.000,,,,,,,0.426,0.510,-10.044,0.180,0.002,-0.018,280,-238,-1117
00:00:00.000,,,,,,,0.426,0.551,-9.881,0.182,-0.003,-0.018,280,-241,-1108
00:00:00.000,,,,,,,0.484,0.543,-9.922,0.182,-0.003,-0.019,287,-231,-1096
00:00:00.000,,,,,,,0.376,0.512,-9.888,0.180,-0.002,-0.019,282,-228,-1101
00:00:00.000,,,,,,,0.378,0.510,-9.864,0.183,0.000,-0.017,270,-238,-1098
00:00:00.000,,,,,,,0.390,0.464,-9.833,0.183,-0.004,-0.021,267,-238,-1103
00:00:00.000,,,,,,,0.400,0.524,-9.936,0.183,-0.005,-0.019,272,-243,-1101
00:00:00.000,,,,,,,0.426,0.555,-9.965,0.179,-0.001,-0.017,285,-226,-1101
00:00:00.000,,,,,,,0.402,0.508,-9.831,0.181,-0.003,-0.017,267,-246,-1098
00:00:00.000,,,,,,,0.397,0.536,-9.852,0.181,-0.001,-0.018,287,-236,-1091
00:00:00.000,,,,,,,0.457,0.546,-9.934,0.182,-0.002,-0.017,277,-246,-1093
00:00:00.000,,,,,,,0.431,0.503,-9.898,0.183,-0.002,-0.017,277,-243,-1106
00:00:00.000,,,,,,,0.431,0.498,-9.914,0.180,-0.003,-0.019,287,-238,-1098
00:00:00.000,,,,,,,0.402,0.563,-9.926,0.181,-0.004,-0.020,282,-236,-1108
00:00:00.000,,,,,,,0.309,0.218,-8.722,0.175,-0.003,-0.018,277,-248,-1112
00:00:00.000,,,,,,,0.500,0.630,-9.984,0.188,-0.007,-0.016,280,-246,-1115
00:00:00.000,,,,,,,0.251,0.948,-10.039,0.181,0.017,-0.016,285,-270,-1122
00:00:00.000,,,,,,,0.469,0.354,-9.634,0.183,-0.015,-0.018,290,-258,-1130
00:00:00.000,,,,,,,0.345,0.541,-9.900,0.178,-0.003,-0.016,305,-248,-1120
00:00:00.000,,,,,,,0.385,0.493,-10.027,0.186,-0.013,-0.015,300,-262,-1125
00:00:00.000,,,,,,,0.414,0.496,-9.986,0.176,-0.006,-0.017,305,-246,-1137
00:00:00.000,,,,,,,0.393,0.570,-9.998,0.167,-0.007,-0.023,302,-256,-1132
00:00:00.000,,,,,,,0.414,0.496,-10.036,0.182,0.017,-0.014,290,-260,-1137
00:00:00.000,,,,,,,0.646,0.634,-10.807,0.170,0.021,-0.010,310,-253,-1122
00:00:00.000,,,,,,,0.433,0.510,-9.886,0.187,0.011,-0.018,310,-238,-1132
00:00:00.000,,,,,,,0.426,0.543,-9.673,0.183,-0.005,-0.016,302,-260,-1140
00:00:00.000,,,,,,,0.388,0.472,-9.838,0.175,0.066,-0.009,315,-236,-1127
00:00:00.000,,,,,,,0.486,0.532,-10.005,0.169,-0.018,-0.016,302,-248,-1127
00:00:00.000,,,,,,,0.397,0.532,-9.931,0.181,0.003,-0.016,312,-236,-1130
0