=~=~=~=~=~=~=~=~=~=~=~= PuTTY log 2025.11.17 16:11:22 =~=~=~=~=~=~=~=~=~=~=~=
UTC,Lat,Long,Alt,ECEF_X,ECEF_Y,ECEF_Z,ax,ay,az,gx,gy,gz,magx,magy,magz
00:11:27.100,37.42678452,-122.17305756,30.300,-2700395.000,-4292630.500,3855132.750,0.381,0.565,-9.819,0.178,0.000,-0.021,-1161,-418,-1328
00:11:27.200,37.42678452,-122.17305756,30.300,-2700395.000,-4292630.500,3855132.750,0.383,0.520,-9.773,0.181,0.001,-0.020,-1190,-416,-1336
00:11:27.200,37.42678452,-122.17305756,30.300,-2700395.000,-4292630.500,3855132.750,0.429,0.555,-9.831,0.176,0.000,-0.018,-1182,-423,-1331
00:11:27.300,37.42678452,-122.17305756,30.300,-2700395.000,-4292630.500,3855132.750,0.395,0.505,-9.809,0.180,-0.005,-0.021,-1187,-436,-1338
00:11:27.300,37.42678452,-122.17305756,30.300,-2700395.000,-4292630.500,3855132.750,0.390,0.548,-9.740,0.180,-0.001,-0.019,-1200,-421,-1341
00:11:27.400,37.42678452,-122.17305756,30.300,-2700395.000,-4292630.500,3855132.750,0.369,0.532,-9.725,0.180,0.001,-0.024,-1192,-412,-1331
00:11:27.400,37.42678452,-122.17305756,30.300,-2700395.000,-4292630.500,3855132.750,0.369,0.541,-9.768,0.176,-0.005,-0.020,-1185,-431,-1333
00:11:27.500,37.42678452,-122.17305756,30.300,-2700395.000,-4292630.500,3855132.750,0.354,0.498,-9.701,0.176,-0.002,-0.019,-1200,-436,-1343
00:11:27.500,37.42678452,-122.17305756,30.300,-2700395.000,-4292630.500,3855132.750,0.402,0.529,-9.823,0.176,0.001,-0.022,-1190,-416,-1333
00:11:27.600,37.42678452,-122.17305756,30.300,-2700395.000,-4292630.500,3855132.750,0.453,0.529,-9.764,0.180,-0.005,-0.020,-1202,-431,-1336
00:11:27.600,37.42678452,-122.17305756,30.300,-2700395.000,-4292630.500,3855132.750,0.373,0.532,-9.783,0.177,-0.001,-0.015,-1181,-421,-1333
00:11:27.700,37.42678452,-122.17305756,30.400,-2700395.000,-4292630.500,3855132.750,0.393,0.551,-9.737,0.178,0.002,-0.018,-1190,-428,-1326
00:11:27.700,37.42678452,-122.17305756,30.400,-2700395.000,-4292630.500,3855132.750,0.409,0.500,-9.735,0.181,-0.002,-0.020,-1187,-418,-1336
00:11:27.800,37.42678452,-122.17305756,30.400,-2700395.000,-4292630.500,3855132.750,0.383,0.536,-9.811,0.180,-0.003,-0.021,-1192,-423,-1338
00:11:27.800,37.42678452,-122.17305756,30.400,-2700395.000,-4292630.500,3855132.750,0.345,0.548,-9.764,0.178,0.001,-0.021,-1185,-418,-1338
00:11:27.900,37.42678452,-122.17305756,30.400,-2700395.000,-4292630.500,3855132.750,0.395,0.515,-9.809,0.176,0.000,-0.023,-1197,-421,-1343
00:11:27.900,37.42678452,-122.17305756,30.400,-2700395.000,-4292630.500,3855132.750,0.429,0.467,-9.761,0.176,-0.000,-0.021,-1192,-421,-1336
00:11:28.000,37.42678452,-122.17305756,30.400,-2700395.000,-4292630.500,3855132.750,0.371,0.510,-9.718,0.177,-0.002,-0.021,-1190,-418,-1336
00:11:28.000,37.42678452,-122.17305756,30.400,-2700395.000,-4292630.500,3855132.750,0.393,0.512,-9.780,0.177,-0.002,-0.022,-1185,-418,-1333
00:11:28.100,37.42678452,-122.17305756,30.400,-2700395.000,-4292630.500,3855132.750,0.436,0.498,-9.888,0.177,-0.006,-0.022,-1185,-423,-1328
00:11:28.100,37.42678452,-122.17305756,30.400,-2700395.000,-4292630.500,3855132.750,0.412,0.515,-9.776,0.178,-0.001,-0.020,-1195,-431,-1326
00:11:28.200,37.42678452,-122.17305756,30.400,-2700395.000,-4292630.500,3855132.750,0.409,0.522,-9.838,0.179,-0.001,-0.020,-1187,-441,-1331
00:11:28.200,37.42678452,-122.17305756,30.400,-2700395.000,-4292630.500,3855132.750,0.407,0.553,-9.730,0.179,-0.002,-0.019,-1173,-416,-1328
00:11:28.300,37.42678452,-122.17305756,30.400,-2700395.000,-4292630.500,3855132.750,0.354,0.541,-9.807,0.178,-0.001,-0.019,-1176,-423,-1336
00:11:28.300,37.42678452,-122.17305756,30.400,-2700395.000,-4292630.500,3855132.750,0.433,0.524,-9.732,0.175,-0.001,-0.018,-1195,-410,-1333
00:11:28.400,37.42678452,-122.17305756,30.400,-2700395.000,-4292630.500,3855132.750,0.407,0.500,-9.720,0.178,-0.001,-0.017,-1182,-421,-1323
00:11:28.400,37.42678452,-122.17305756,30.400,-2700395.000,-4292630.500,3855132.750,0.400,0.563,-9.699,0.177,-0.000,-0.020,-1190,-426,-1338
00:11:28.500,37.42678452,-122.17305756,30.400,-2700395.000,-4292630.500,3855132.750,0.429,0.548,-9.754,0.178,-0.003,-0.019,-1192,-412,-1338
00:11:28.500,37.42678452,-122.17305756,30.400,-2700395.000,-4292630.500,3855132.750,0.443,0.565,-9.787,0.177,-0.002,-0.019,-1176,-431,-1333
00:11:28.600,37.42678452,-122.17305756,30.400,-2700395.000,-4292630.500,3855132.750,0.414,0.543,-9.809,0.178,-0.002,-0.017,-1176,-426,-1338
00:11:28.600,37.42678452,-122.17305756,30.400,-2700395.000,-4292630.500,3855132.750,0.378,0.548,-9.773,0.178,0.000,-0.020,-1181,-412,-1333
00:11:28.700,37.42678452,-122.17305756,30.400,-2700395.000,-4292630.500,3855132.750,0.373,0.570,-9.819,0.177,-0.001,-0.019,-1185,-418,-1328
00:11:28.700,37.42678452,-122.17305756,30.400,-2700395.000,-4292630.500,3855132.750,0.371,0.529,-9.835,0.173,0.004,-0.022,-1197,-426,-1343
00:11:28.800,37.42678452,-122.17305756,30.400,-2700395.000,-4292630.500,3855132.750,0.474,0.534,-9.799,0.183,-0.001,-0.022,-1187,-415,-1341
00:11:28.800,37.42678452,-122.17305756,30.400,-2700395.000,-4292630.500,3855132.750,0.381,0.558,-9.799,0.178,-0.002,-0.020,-1178,-428,-1326
00:11:28.900,37.42678452,-122.17305756,30.400,-2700395.000,-4292630.500,3855132.750,0.371,0.510,-9.790,0.178,-0.004,-0.018,-1195,-418,-1336
00:11:28.900,37.42678452,-122.17305756,30.400,-2700395.000,-4292630.500,3855132.750,0.369,0.560,-9.811,0.177,0.002,-0.021,-1187,-428,-1333
00:11:29.000,37.42678452,-122.17305756,30.400,-2700395.000,-4292630.500,3855132.750,0.429,0.481,-9.773,0.176,-0.003,-0.022,-1185,-423,-1338
00:11:29.000,37.42678452,-122.17305756,30.400,-2700395.000,-4292630.500,3855132.750,0.366,0.534,-9.730,0.178,0.001,-0.019,-1190,-421,-1341
00:11:29.100,37.42678452,-122.17305756,30.400,-2700395.000,-4292630.500,3855132.750,0.405,0.548,-9.804,0.178,-0.001,-0.023,-1190,-426,-1333
00:11:29.100,37.42678452,-122.17305756,30.400,-2700395.000,-4292630.500,3855132.750,0.419,0.498,-9.704,0.180,-0.002,-0.021,-1192,-426,-1336
00:11:29.200,37.42678452,-122.17305756,30.400,-2700395.000,-4292630.500,3855132.750,0.438,0.491,-9.728,0.177,-0.003,-0.017,-1192,-426,-1338
00:11:29.200,37.42678452,-122.17305756,30.400,-2700395.000,-4292630.500,3855132.750,0.393,0.543,-9.730,0.177,-0.001,-0.021,-1182,-428,-1341
00:11:29.300,37.42678452,-122.17305756,30.400,-2700395.000,-4292630.500,3855132.750,0.421,0.539,-9.821,0.177,-0.003,-0.021,-1185,-415,-1338
00:11:29.300,37.42678452,-122.17305756,30.400,-2700395.000,-4292630.500,3855132.750,0.431,0.532,-9.804,0.177,-0.005,-0.022,-1192,-421,-1331
00:11:29.400,37.42678452,-122.17305756,30.400,-2700395.000,-4292630.500,3855132.750,0.395,0.541,-9.768,0.179,-0.000,-0.020,-1192,-421,-1333
00:11:29.400,37.42678452,-122.17305756,30.400,-2700395.000,-4292630.500,3855132.750,0.429,0.543,-9.802,0.178,-0.002,-0.021,-1195,-436,-1333
00:11:29.500,37.42678452,-122.17305756,30.400,-2700395.000,-4292630.500,3855132.750,0.388,0.558,-9.685,0.175,-0.003,-0.019,-1197,-416,-1338
00:11:29.500,37.42678452,-122.17305756,30.400,-2700395.000,-4292630.500,3855132.750,0.395,0.500,-9.852,0.177,-0.001,-0.020,-1178,-433,-1333
00:11:29.600,37.42678452,-122.17305756,30.400,-2700395.000,-4292630.500,3855132.750,0.381,0.565,-9.740,0.179,0.002,-0.022,-1187,-421,-1336
00:11:29.600,37.42678452,-122.17305756,30.400,-2700395.000,-4292630.500,3855132.750,0.417,0.479,-9.742,0.175,0.002,-0.019,-1202,-421,-1338
00:11:29.700,37.42678452,-122.17305756,30.400,-2700395.000,-4292630.500,3855132.750,0.385,0.553,-9.802,0.179,-0.001,-0.020,-1181,-418,-1333
00:11:29.700,37.42678452,-122.17305756,30.400,-2700395.000,-4292630.500,3855132.750,0.397,0.575,-9.778,0.179,-0.004,-0.020,-1182,-421,-1323
00:11:29.800,37.42678452,-122.17305756,30.400,-2700395.000,-4292630.500,3855132.750,0.445,0.575,-9.807,0.176,-0.002,-0.020,-1192,-410,-1331
00:11:29.800,37.42678452,-122.17305756,30.400,-2700395.000,-4292630.500,3855132.750,0.373,0.532,-9.795,0.175,-0.002,-0.020,-1190,-421,-1328
00:11:29.900,37.42678452,-122.17304993,30.400,-2700395.000,-4292630.500,3855132.750,0.438,0.474,-9.697,0.180,-0.003,-0.017,-1182,-431,-1328
00:11:29.900,37.42678452,-122.17304993,30.400,-2700395.000,-4292630.500,3855132.750,0.462,0.532,-9.737,0.177,-0.002,-0.019,-1171,-426,-1321
00:11:30.000,37.42678452,-122.17304993,30.400,-2700395.000,-4292630.500,3855132.750,0.369,0.567,-9.776,0.179,-0.001,-0.020,-1187,-426,-1326
00:11:30.000,37.42678452,-122.17304993,30.400,-2700395.000,-4292630.500,3855132.750,0.431,0.551,-9.759,0.181,0.001,-0.024,-1190,-436,-1348
00:11:30.100,37.42678452,-122.17304993,30.400,-2700395.000,-4292630.500,3855132.750,0.373,0.553,-9.730,0.180,-0.001,-0.016,-1192,-428,-1338
00:11:30.100,37.42678452,-122.17304993,30.400,-2700395.000,-4292630.500,3855132.750,0.390,0.510,-9.783,0.174,0.001,-0.023,-1190,-428,-1336
00:11:30.200,37.42678452,-122.17304993,30.400,-2700395.000,-4292630.500,3855132.750,0.417,0.546,-9.771,0.178,-0.000,-0.022,-1195,-428,-1331
00:11:30.200,37.42678452,-122.17304993,30.400,-2700395.000,-4292630.500,3855132.750,0.395,0.486,-9.752,0.176,-0.002,-0.018,-1187,-418,-1331
00:11:30.300,37.42678452,-122.17304993,30.400,-2700395.000,-4292630.500,3855132.750,0.436,0.563,-9.704,0.177,-0.002,-0.019,-1187,-428,-1331
00:11:30.300,37.42678452,-122.17304993,30.400,-2700395.000,-4292630.500,3855132.750,0.378,0.565,-9.814,0.174,-0.001,-0.019,-1182,-416,-1328
00:11:30.400,37.42678452,-122.17304993,30.400,-2700395.000,-4292630.500,3855132.750,0.421,0.496,-9.766,0.176,-0.002,-0.020,-1187,-421,-1341
00:11:30.400,37.42678452,-122.17304993,30.400,-2700395.000,-4292630.500,3855132.750,0.417,0.527,-9.708,0.180,-0.000,-0.021,-1195,-426,-1343
00:11:30.500,37.42678452,-122.17304993,30.400,-2700395.000,-4292630.500,3855132.750,0.414,0.532,-9.838,0.174,0.001,-0.019,-1187,-428,-1336
00:11:30.500,37.42678452,-122.17304993,30.400,-2700395.000,-4292630.500,3855132.750,0.405,0.541,-9.749,0.177,-0.001,-0.021,-1197,-416,-1341
00:11:30.600,37.42678452,-122.17304993,30.400,-2700395.000,-4292630.500,3855132.750,0.412,0.539,-9.687,0.176,-0.000,-0.019,-1195,-423,-1333
00:11:30.600,37.42678452,-122.17304993,30.400,-2700395.000,-4292630.500,3855132.750,0.476,0.539,-9.697,0.175,-0.004,-0.023,-1190,-426,-1343
00:11:30.700,37.42678452,-122.17304993,30.400,-2700395.000,-4292630.500,3855132.750,0.381,0.558,-9.704,0.179,0.002,-0.023,-1185,-418,-1321
00:11:30.700,37.42678452,-122.17304993,30.400,-2700395.000,-4292630.500,3855132.750,0.371,0.529,-9.780,0.175,-0.002,-0.020,-1197,-428,-1331
00:11:30.800,37.42678452,-122.17304993,30.400,-2700395.000,-4292630.500,3855132.750,0.395,0.529,-9.780,0.176,-0.004,-0.019,-1197,-418,-1348
00:11:30.800,37.42678452,-122.17304993,30.400,-2700395.000,-4292630.500,3855132.750,0.318,0.474,-9.756,0.178,-0.002,-0.022,-1185,-423,-1343
00:11:30.900,37.42678452,-122.17304993,30.400,-2700395.000,-4292630.500,3855132.750,0.369,0.551,-9.835,0.179,-0.004,-0.019,-1176,-421,-1341
00:11:30.900,37.42678452,-122.17304993,30.400,-2700395.000,-4292630.500,3855132.750,0.426,0.582,-9.759,0.180,-0.002,-0.019,-1190,-426,-1331
00:11:31.000,37.42678452,-122.17304993,30.400,-2700395.000,-4292630.500,3855132.750,0.433,0.496,-9.771,0.178,0.001,-0.021,-1192,-428,-1343
00:11:31.000,37.42678452,-122.17304993,30.400,-2700395.000,-4292630.500,3855132.750,0.362,0.529,-9.843,0.176,0.000,-0.020,-1185,-423,-1341
00:11:31.100,37.42678452,-122.17304993,30.400,-2700395.000,-4292630.500,3855132.750,0.402,0.539,-9.835,0.176,-0.000,-0.022,-1192,-426,-1338
00:11:31.100,37.42678452,-122.17304993,30.400,-2700395.000,-4292630.500,3855132.750,0.405,0.498,-9.754,0.179,-0.002,-0.019,-1192,-418,-1338
00:11:31.200,37.42678452,-122.17304993,30.400,-2700395.000,-4292630.500,3855132.750,0.369,0.455,-9.773,0.177,-0.001,-0.018,-1195,-433,-1341
00:11:31.200,37.42678452,-122.17304993,30.400,-2700395.000,-4292630.500,3855132.750,0.445,0.606,-9.792,0.178,-0.004,-0.019,-1190,-418,-1333
00:11:31.300,37.42678452,-122.17304993,30.400,-2700395.000,-4292630.500,3855132.750,0.443,0.532,-9.735,0.176,-0.002,-0.021,-1185,-421,-1346
00:11:31.300,37.42678452,-122.17304993,30.400,-2700395.000,-4292630.500,3855132.750,0.373,0.522,-9.720,0.179,-0.000,-0.019,-1195,-421,-1341
00:11:31.400,37.42678452,-122.17304993,30.400,-2700395.000,-4292630.500,3855132.750,0.426,0.555,-9.804,0.177,-0.001,-0.021,-1190,-426,-1336
00:11:31.400,37.42678452,-122.17304993,30.400,-2700395.000,-4292630.500,3855132.750,0.369,0.536,-9.790,0.180,-0.001,-0.019,-1190,-428,-1341
00:11:31.500,37.42678452,-122.17304993,30.400,-2700395.000,-4292630.500,3855132.750,0.400,0.548,-9.740,0.179,0.001,-0.018,-1197,-423,-1338
00:11:31.500,37.42678452,-122.17304993,30.400,-2700395.000,-4292630.500,3855132.750,0.323,0.479,-9.809,0.176,-0.003,-0.017,-1190,-428,-1336
00:11:31.600,37.42678452,-122.17304993,30.400,-2700395.000,-4292630.500,3855132.750,0.402,0.596,-9.838,0.179,0.001,-0.020,-1187,-416,-1333
00:11:31.600,37.42678452,-122.17304993,30.400,-2700395.000,-4292630.500,3855132.750,0.342,0.539,-9.776,0.177,-0.001,-0.019,-1192,-428,-1336
00:11:31.700,37.42678452,-122.17304993,30.400,-2700395.000,-4292630.500,3855132.750,0.407,0.553,-9.819,0.181,-0.005,-0.021,-1197,-428,-1341
00:11:31.700,37.42678452,-122.17304993,30.400,-2700395.000,-4292630.500,3855132.750,0.369,0.553,-9.847,0.178,0.000,-0.019,-1192,-416,-1341
00:11:31.800,37.42678452,-122.17304993,30.300,-2700394.750,-4292630.500,3855132.750,0.369,0.567,-9.807,0.179,-0.002,-0.020,-1195,-426,-1341
00:11:31.800,37.42678452,-122.17304993,30.300,-2700394.750,-4292630.500,3855132.750,0.409,0.611,-9.735,0.178,0.000,-0.021,-1192,-421,-1343
00:11:31.900,37.42678452,-122.17304993,30.300,-2700394.750,-4292630.500,3855132.750,0.393,0.491,-9.802,0.177,0.000,-0.018,-1192,-436,-1336
00:11:31.900,37.42678452,-122.17304993,30.300,-2700394.750,-4292630.500,3855132.750,0.385,0.479,-9.704,0.182,-0.007,-0.021,-1190,-418,-1343
00:11:32.000,37.42678452,-122.17304993,30.300,-2700394.750,-4292630.500,3855132.750,0.433,0.553,-9.902,0.179,-0.002,-0.022,-1190,-421,-1343
00:11:32.000,37.42678452,-122.17304993,30.300,-2700394.750,-4292630.500,3855132.750,0.402,0.548,-9.780,0.179,-0.004,-0.021,-1190,-410,-1326
00:11:32.100,37.42678452,-122.17304993,30.300,-2700394.750,-4292630.500,3855132.750,0.400,0.520,-9.773,0.181,0.001,-0.020,-1195,-418,-1331
00:11:32.100,37.42678452,-122.17304993,30.300,-2700394.750,-4292630.500,3855132.750,0.405,0.474,-9.862,0.177,-0.002,-0.021,-1192,-428,-1343
00:11:32.200,37.42678452,-122.17304993,30.300,-2700394.750,-4292630.500,3855132.750,0.397,0.481,-9.766,0.175,0.001,-0.019,-1185,-421,-1341
00:11:32.200,37.42678452,-122.17304993,30.300,-2700394.750,-4292630.500,3855132.750,0.385,0.572,-9.809,0.174,-0.003,-0.018,-1195,-428,-1353
00:11:32.300,37.42678452,-122.17304993,30.300,-2700394.750,-4292630.500,3855132.750,0.455,0.503,-9.835,0.177,0.001,-0.022,-1187,-416,-1338
00:11:32.300,37.42678452,-122.17304993,30.300,-2700394.750,-4292630.500,3855132.750,0.400,0.503,-9.776,0.175,0.000,-0.020,-1182,-433,-1346
00:11:32.400,37.42678452,-122.17304993,30.200,-2700394.750,-4292630.500,3855132.750,0.419,0.553,-9.718,0.176,-0.001,-0.021,-1166,-426,-1343
00:11:32.400,37.42678452,-122.17304993,30.200,-2700394.750,-4292630.500,3855132.750,0.373,0.551,-9.730,0.175,0.000,-0.021,-1190,-423,-1346
00:11:32.500,37.42678452,-122.17304993,30.200,-2700394.750,-4292630.500,3855132.750,0.397,0.488,-9.804,0.178,-0.002,-0.019,-1168,-433,-1331
00:11:32.500,37.42678452,-122.17304993,30.200,-2700394.750,-4292630.500,3855132.750,0.397,0.553,-9.697,0.179,-0.000,-0.017,-1192,-423,-1351
00:11:32.600,37.42678452,-122.17304993,30.200,-2700394.750,-4292630.500,3855132.750,0.388,0.555,-9.761,0.178,-0.004,-0.019,-1176,-421,-1341
00:11:32.600,37.42678452,-122.17304993,30.200,-2700394.750,-4292630.500,3855132.750,0.388,0.529,-9.823,0.179,-0.003,-0.020,-1192,-418,-1328
00:11:32.700,37.42678452,-122.17304993,30.200,-2700394.750,-4292630.500,3855132.750,0.359,0.536,-9.718,0.177,-0.006,-0.021,-1178,-418,-1331
00:11:32.700,37.42678452,-122.17304993,30.200,-2700394.750,-4292630.500,3855132.750,0.426,0.503,-9.821,0.178,0.002,-0.020,-1190,-431,-1333
00:11:32.800,37.42678452,-122.17304993,30.200,-2700394.750,-4292630.500,3855132.750,0.467,0.570,-9.766,0.176,0.002,-0.020,-1181,-412,-1328
00:11:32.800,37.42678452,-122.17304993,30.200,-2700394.750,-4292630.500,3855132.750,0.362,0.539,-9.766,0.179,-0.003,-0.022,-1181,-416,-1331
00:11:32.900,37.42678452,-122.17304993,30.200,-2700394.750,-4292630.500,3855132.750,0.438,0.560,-9.766,0.177,-0.006,-0.020,-1171,-423,-1336
00:11:32.900,37.42678452,-122.17304993,30.200,-2700394.750,-4292630.500,3855132.750,0.357,0.551,-9.783,0.176,-0.000,-0.021,-1173,-423,-1316
00:11:33.000,37.42678452,-122.17304993,30.200,-2700394.750,-4292630.500,3855132.750,0.393,0.515,-9.759,0.173,0.002,-0.021,-1176,-428,-1333
00:11:33.000,37.42678452,-122.17304993,30.200,-2700394.750,-4292630.500,3855132.750,0.417,0.508,-9.792,0.176,-0.007,-0.019,-1176,-423,-1338
00:11:33.100,37.42678452,-122.17304993,30.100,-2700394.750,-4292630.000,3855132.500,0.383,0.486,-9.675,0.176,-0.007,-0.021,-1181,-428,-1338
00:11:33.100,37.42678452,-122.17304993,30.100,-2700394.750,-4292630.000,3855132.500,0.412,0.534,-9.735,0.178,0.001,-0.019,-1166,-426,-1341
00:11:33.200,37.42678452,-122.17304993,30.100,-2700394.750,-4292630.500,3855132.500,0.373,0.543,-9.711,0.179,-0.004,-0.021,-1190,-428,-1343
00:11:33.200,37.42678452,-122.17304993,30.100,-2700394.750,-4292630.500,3855132.500,0.347,0.476,-9.776,0.174,-0.001,-0.018,-1187,-423,-1323
00:11:33.300,37.42678452,-122.17304993,30.100,-2700394.750,-4292630.500,3855132.500,0.405,0.572,-9.780,0.178,0.002,-0.021,-1187,-418,-1343
00:11:33.300,37.42678452,-122.17304993,30.100,-2700394.750,-4292630.500,3855132.500,0.453,0.529,-9.768,0.175,-0.004,-0.021,-1185,-423,-1328
00:11:33.400,37.42678452,-122.17304993,30.100,-2700394.750,-4292630.500,3855132.500,0.383,0.589,-9.811,0.177,0.000,-0.021,-1187,-421,-1331
00:11:33.400,37.42678452,-122.17304993,30.100,-2700394.750,-4292630.500,3855132.500,0.412,0.508,-9.752,0.178,0.001,-0.018,-1192,-410,-1336
00:11:33.500,37.42678452,-122.17304993,30.100,-2700394.750,-4292630.500,3855132.500,0.409,0.558,-9.826,0.177,-0.005,-0.019,-1190,-421,-1336
00:11:33.500,37.42678452,-122.17304993,30.100,-2700394.750,-4292630.500,3855132.500,0.381,0.505,-9.761,0.178,-0.001,-0.017,-1173,-418,-1326
00:11:33.600,37.42678452,-122.17304993,30.100,-2700394.750,-4292630.500,3855132.500,0.429,0.524,-9.759,0.176,-0.002,-0.019,-1176,-415,-1338
00:11:33.600,37.42678452,-122.17304993,30.100,-2700394.750,-4292630.500,3855132.500,0.350,0.476,-9.713,0.179,-0.000,-0.019,-1187,-418,-1341
00:11:33.700,37.42678452,-122.17304993,30.100,-2700394.750,-4292630.500,3855132.500,0.421,0.529,-9.747,0.177,-0.003,-0.021,-1182,-418,-1343
00:11:33.700,37.42678452,-122.17304993,30.100,-2700394.750,-4292630.500,3855132.500,0.450,0.529,-9.859,0.178,0.003,-0.023,-1163,-423,-1338
00:11:33.800,37.42678452,-122.17304993,30.100,-2700394.750,-4292630.500,3855132.500,0.376,0.520,-9.747,0.178,-0.003,-0.018,-1171,-416,-1341
00:11:33.800,37.42678452,-122.17304993,30.100,-2700394.750,-4292630.500,3855132.500,0.438,0.505,-9.752,0.178,-0.002,-0.021,-1176,-416,-1341
00:11:33.900,37.42678452,-122.17304993,30.100,-2700394.750,-4292630.500,3855132.500,0.426,0.553,-9.752,0.176,-0.001,-0.021,-1182,-416,-1316
00:11:33.900,37.42678452,-122.17304993,30.100,-2700394.750,-4292630.500,3855132.500,0.397,0.476,-9.776,0.180,-0.002,-0.019,-1181,-412,-1333
00:11:34.000,37.42678452,-122.17304993,30.100,-2700394.750,-4292630.500,3855132.500,0.400,0.529,-9.845,0.175,0.000,-0.022,-1178,-421,-1333
00:11:34.000,37.42678452,-122.17304993,30.100,-2700394.750,-4292630.500,3855132.500,0.388,0.563,-9.792,0.176,-0.000,-0.019,-1171,-418,-1336
00:11:34.100,37.42678452,-122.17304993,30.100,-2700394.750,-4292630.500,3855132.500,0.393,0.567,-9.826,0.175,-0.001,-0.018,-1176,-418,-1328
00:11:34.100,37.42678452,-122.17304993,30.100,-2700394.750,-4292630.500,3855132.500,0.431,0.496,-9.687,0.177,0.000,-0.019,-1163,-415,-1321
00:11:34.200,37.42678452,-122.17304993,30.100,-2700394.750,-4292630.500,3855132.500,0.376,0.551,-9.895,0.177,-0.002,-0.019,-1182,-418,-1331
00:11:34.200,37.42678452,-122.17304993,30.100,-2700394.750,-4292630.500,3855132.500,0.328,0.555,-9.713,0.179,0.001,-0.018,-1173,-421,-1338
00:11:34.300,37.42678452,-122.17304993,30.100,-2700394.750,-4292630.500,3855132.500,0.419,0.548,-9.747,0.175,-0.001,-0.018,-1182,-418,-1341
00:11:34.400,37.42678452,-122.17304993,30.100,-2700394.750,-4292630.500,3855132.500,0.390,0.469,-9.747,0.178,0.001,-0.020,-1182,-423,-1336
00:11:34.400,37.42678452,-122.17304993,30.100,-2700394.750,-4292630.500,3855132.500,0.393,0.484,-9.814,0.179,0.004,-0.021,-1178,-421,-1341
00:11:34.400,37.42678452,-122.17304993,30.100,-2700394.750,-4292630.500,3855132.500,0.366,0.534,-9.735,0.176,0.003,-0.021,-1178,-407,-1336
00:11:34.500,37.42678452,-122.17304993,30.100,-2700394.750,-4292630.500,3855132.500,0.429,0.555,-9.804,0.176,-0.001,-0.017,-1176,-416,-1336
00:11:34.500,37.42678452,-122.17304993,30.100,-2700394.750,-4292630.500,3855132.500,0.364,0.524,-9.694,0.181,-0.003,-0.020,-1176,-426,-1336
00:11:34.600,37.42678452,-122.17304993,30.100,-2700394.750,-4292630.500,3855132.500,0.376,0.541,-9.766,0.177,-0.001,-0.023,-1190,-416,-1333
00:11:34.600,37.42678452,-122.17304993,30.100,-2700394.750,-4292630.500,3855132.500,0.431,0.546,-9.826,0.176,-0.003,-0.021,-1182,-428,-1336
00:11:34.700,37.42678452,-122.17304993,30.100,-2700394.750,-4292630.500,3855132.500,0.354,0.503,-9.828,0.176,-0.002,-0.020,-1173,-407,-1331
00:11:34.700,37.42678452,-122.17304993,30.100,-2700394.750,-4292630.500,3855132.500,0.385,0.539,-9.682,0.178,-0.000,-0.020,-1166,-416,-1331
00:11:34.800,37.42678452,-122.17304993,30.200,-2700394.750,-4292630.500,3855132.500,0.409,0.520,-9.799,0.176,-0.002,-0.023,-1181,-433,-1331
00:11:34.900,37.42678452,-122.17304993,30.200,-2700394.750,-4292630.500,3855132.500,0.409,0.536,-9.766,0.176,-0.001,-0.022,-1176,-421,-1323
00:11:34.900,37.42678452,-122.17304993,30.100,-2700394.750,-4292630.500,3855132.500,0.381,0.488,-9.816,0.178,-0.008,-0.019,-1181,-428,-1343
00:11:34.900,37.42678452,-122.17304993,30.100,-2700394.750,-4292630.500,3855132.500,0.362,0.565,-9.838,0.178,0.000,-0.019,-1178,-415,-1331
00:11:35.000,37.42678452,-122.17304993,30.200,-2700394.750,-4292630.500,3855132.500,0.362,0.532,-9.790,0.179,-0.003,-0.022,-1185,-416,-1333
00:11:35.100,37.42678452,-122.17304993,30.200,-2700394.750,-4292630.500,3855132.500,0.369,0.563,-9.804,0.178,0.000,-0.021,-1176,-412,-1333
00:11:35.100,37.42678452,-122.17304993,30.200,-2700394.750,-4292630.500,3855132.500,0.397,0.508,-9.802,0.174,-0.001,-0.022,-1181,-418,-1336
00:11:35.200,37.42678452,-122.17304993,30.200,-2700394.750,-4292630.500,3855132.500,0.373,0.510,-9.701,0.177,-0.002,-0.020,-1195,-415,-1333
00:11:35.200,37.42678452,-122.17304993,30.200,-2700394.750,-4292630.500,3855132.500,0.405,0.548,-9.790,0.177,-0.001,-0.022,-1176,-418,-1338
00:11:35.200,37.42678452,-122.17304993,30.200,-2700394.750,-4292630.500,3855132.500,0.512,0.517,-9.857,0.178,0.000,-0.020,-1171,-416,-1331
00:11:35.300,37.42678452,-122.17304993,30.200,-2700394.750,-4292630.500,3855132.500,0.397,0.524,-9.802,0.178,-0.003,-0.023,-1185,-423,-1321
00:11:35.400,37.42678452,-122.17304993,30.200,-2700394.750,-4292630.500,3855132.500,0.397,0.555,-9.754,0.174,-0.003,-0.018,-1171,-421,-1341
00:11:35.400,37.42678452,-122.17304993,30.200,-2700394.750,-4292630.500,3855132.500,0.462,0.543,-9.802,0.175,0.002,-0.018,-1173,-418,-1326
00:11:35.500,37.42678452,-122.17304993,30.200,-2700394.750,-4292630.500,3855132.500,0.388,0.551,-9.811,0.177,-0.003,-0.021,-1185,-421,-1351
00:11:35.500,37.42678452,-122.17304993,30.200,-2700394.750,-4292630.500,3855132.500,0.364,0.529,-9.771,0.177,-0.001,-0.020,-1178,-421,-1341
00:11:35.600,37.42678452,-122.17304993,30.200,-2700394.750,-4292630.500,3855132.500,0.417,0.553,-9.747,0.176,-0.001,-0.019,-1173,-428,-1333
00:11:35.600,37.42678452,-122.17304993,30.200,-2700394.750,-4292630.500,3855132.500,0.429,0.548,-9.759,0.178,-0.005,-0.022,-1190,-407,-1338
00:11:35.700,37.42678452,-122.17304993,30.200,-2700394.750,-4292630.500,3855132.500,0.347,0.532,-9.706,0.181,-0.000,-0.023,-1178,-410,-1328
00:11:35.700,37.42678452,-122.17304993,30.200,-2700394.750,-4292630.500,3855132.500,0.359,0.543,-9.764,0.177,-0.002,-0.020,-1192,-423,-1353
00:11:35.800,37.42678452,-122.17304993,30.200,-2700394.750,-4292630.500,3855132.500,0.441,0.551,-9.816,0.177,0.002,-0.023,-1187,-423,-1338
00:11:35.800,37.42678452,-122.17304993,30.200,-2700394.750,-4292630.500,3855132.500,0.395,0.522,-9.766,0.179,-0.005,-0.020,-1192,-423,-1341
00:11:35.900,37.42678452,-122.17304993,30.200,-2700394.750,-4292630.500,3855132.500,0.486,0.524,-9.855,0.180,-0.003,-0.019,-1187,-410,-1346
00:11:35.900,37.42678452,-122.17304993,30.200,-2700394.750,-4292630.500,3855132.500,0.405,0.575,-9.802,0.176,-0.000,-0.021,-1178,-415,-1338
00:11:35.900,37.42678452,-122.17304993,30.200,-2700394.750,-4292630.500,3855132.500,0.417,0.543,-9.771,0.178,-0.003,-0.018,-1176,-412,-1333
00:11:36.000,37.42678452,-122.17304993,30.300,-2700394.750,-4292630.500,3855132.750,0.429,0.520,-9.720,0.178,-0.004,-0.019,-1182,-423,-1333
00:11:36.100,37.42678452,-122.17304993,30.300,-2700394.750,-4292630.500,3855132.750,0.421,0.534,-9.792,0.177,-0.001,-0.017,-1182,-418,-1326
00:11:36.100,37.42678452,-122.17304993,30.300,-2700394.750,-4292630.500,3855132.750,0.407,0.553,-9.785,0.177,-0.003,-0.019,-1182,-416,-1328
00:11:36.200,37.42678452,-122.17304993,30.300,-2700394.750,-4292630.500,3855132.750,0.402,0.587,-9.785,0.174,0.002,-0.022,-1176,-416,-1321
00:11:36.200,37.42678452,-122.17304993,30.300,-2700394.750,-4292630.500,3855132.750,0.402,0.520,-9.728,0.179,0.002,-0.020,-1171,-407,-1328
00:11:36.300,37.42678452,-122.17304993,30.300,-2700394.750,-4292630.500,3855132.750,0.347,0.522,-9.747,0.177,-0.001,-0.020,-1171,-415,-1321
00:11:36.300,37.42678452,-122.17304993,30.300,-2700394.750,-4292630.500,3855132.750,0.409,0.517,-9.790,0.176,0.001,-0.018,-1178,-416,-1333
00:11:36.400,37.42678452,-122.17304993,30.300,-2700394.750,-4292630.500,3855132.750,0.421,0.510,-9.783,0.178,-0.001,-0.019,-1182,-415,-1328
00:11:36.400,37.42678452,-122.17304993,30.300,-2700394.750,-4292630.500,3855132.750,0.318,0.503,-9.819,0.178,0.001,-0.022,-1182,-415,-1321
00:11:36.500,37.42678452,-122.17304993,30.300,-2700394.750,-4292630.500,3855132.750,0.436,0.524,-9.699,0.175,-0.002,-0.020,-1182,-421,-1333
00:11:36.500,37.42678452,-122.17304993,30.300,-2700394.750,-4292630.500,3855132.750,0.366,0.517,-9.835,0.175,-0.006,-0.019,-1182,-421,-1348
00:11:36.600,37.42678452,-122.17304993,30.300,-2700394.750,-4292630.500,3855132.750,0.409,0.524,-9.809,0.177,-0.003,-0.022,-1187,-423,-1331
00:11:36.600,37.42678452,-122.17304993,30.300,-2700394.750,-4292630.500,3855132.750,0.417,0.563,-9.811,0.179,0.003,-0.018,-1182,-410,-1336
00:11:36.700,37.42678452,-122.17304993,30.300,-2700394.750,-4292630.500,3855132.750,0.390,0.572,-9.778,0.179,-0.006,-0.020,-1176,-418,-1331
00:11:36.700,37.42678452,-122.17304993,30.300,-2700394.750,-4292630.500,3855132.750,0.362,0.517,-9.771,0.175,-0.003,-0.019,-1181,-431,-1331
00:11:36.800,37.42678452,-122.17304993,30.300,-2700394.750,-4292630.500,3855132.750,0.407,0.558,-9.831,0.178,-0.002,-0.023,-1168,-416,-1336
00:11:36.800,37.42678452,-122.17304993,30.300,-2700394.750,-4292630.500,3855132.750,0.397,0.543,-9.847,0.180,-0.001,-0.020,-1187,-421,-1343
00:11:36.900,37.42678452,-122.17304993,30.300,-2700394.750,-4292630.500,3855132.750,0.450,0.555,-9.747,0.179,0.001,-0.019,-1171,-400,-1326
00:11:36.900,37.42678452,-122.17304993,30.300,-2700394.750,-4292630.500,3855132.750,0.362,0.536,-9.771,0.178,0.002,-0.016,-1185,-418,-1331
00:11:36.900,37.42678452,-122.17304993,30.300,-2700394.750,-4292630.500,3855132.750,0.450,0.508,-9.778,0.178,0.000,-0.021,-1173,-416,-1333
00:11:37.000,37.42678452,-122.17304993,30.300,-2700394.750,-4292630.500,3855132.750,0.385,0.536,-9.759,0.181,-0.003,-0.021,-1182,-416,-1351
00:11:37.100,37.42678452,-122.17304993,30.300,-2700394.750,-4292630.500,3855132.750,0.417,0.553,-9.761,0.177,0.000,-0.023,-1176,-415,-1336
00:11:37.100,37.42678452,-122.17304993,30.300,-2700394.750,-4292630.500,3855132.750,0.414,0.553,-9.792,0.175,-0.003,-0.019,-1173,-416,-1338
00:11:37.200,37.42678452,-122.17304993,30.300,-2700394.750,-4292630.500,3855132.750,0.412,0.548,-9.792,0.177,-0.001,-0.018,-1182,-412,-1326
00:11:37.200,37.42678452,-122.17304993,30.300,-2700394.750,-4292630.500,3855132.750,0.433,0.599,-9.756,0.176,0.004,-0.021,-1195,-416,-1333
00:11:37.300,37.42678452,-122.17304993,30.300,-2700394.500,-4292630.500,3855132.750,0.417,0.515,-9.835,0.179,-0.001,-0.018,-1181,-428,-1336
00:11:37.300,37.42678452,-122.17304993,30.300,-2700394.500,-4292630.500,3855132.750,0.407,0.505,-9.809,0.179,0.002,-0.024,-1195,-410,-1338
00:11:37.400,37.42678452,-122.17304993,30.300,-2700394.500,-4292630.500,3855132.750,0.409,0.539,-9.811,0.179,-0.000,-0.021,-1168,-426,-1326
00:11:37.400,37.42678452,-122.17304993,30.300,-2700394.500,-4292630.500,3855132.750,0.424,0.524,-9.720,0.178,-0.005,-0.019,-1187,-423,-1333
00:11:37.500,37.42678452,-122.17304993,30.300,-2700394.500,-4292630.500,3855132.750,0.436,0.539,-9.826,0.179,0.003,-0.018,-1181,-423,-1333
00:11:37.500,37.42678452,-122.17304993,30.300,-2700394.500,-4292630.500,3855132.750,0.330,0.584,-9.778,0.175,0.000,-0.020,-1192,-423,-1346
00:11:37.600,37.42678452,-122.17304993,30.300,-2700394.500,-4292630.500,3855132.750,0.371,0.520,-9.780,0.177,-0.004,-0.020,-1187,-418,-1343
00:11:37.600,37.42678452,-122.17304993,30.300,-2700394.500,-4292630.500,3855132.750,0.381,0.496,-9.771,0.177,0.001,-0.017,-1181,-412,-1336
00:11:37.700,37.42678452,-122.17304993,30.300,-2700394.500,-4292630.500,3855132.750,0.407,0.508,-9.752,0.178,-0.002,-0.022,-1185,-421,-1336
00:11:37.700,37.42678452,-122.17304993,30.400,-2700394.750,-4292630.500,3855132.750,0.424,0.541,-9.787,0.179,0.001,-0.022,-1181,-415,-1336
00:11:37.800,37.42678452,-122.17304993,30.400,-2700394.750,-4292630.500,3855132.750,0.371,0.575,-9.759,0.177,-0.004,-0.019,-1176,-421,-1346
00:11:37.800,37.42678452,-122.17304993,30.400,-2700394.750,-4292630.500,3855132.750,0.381,0.555,-9.811,0.180,-0.001,-0.020,-1173,-431,-1348
00:11:37.900,37.42678452,-122.17304993,30.400,-2700394.750,-4292630.500,3855132.750,0.417,0.563,-9.725,0.178,-0.005,-0.018,-1192,-416,-1338
00:11:37.900,37.42678452,-122.17304993,30.300,-2700394.500,-4292630.500,3855132.750,0.390,0.539,-9.716,0.176,-0.004,-0.023,-1173,-407,-1326
00:11:37.900,37.42678452,-122.17304993,30.300,-2700394.500,-4292630.500,3855132.750,0.407,0.579,-9.735,0.179,-0.002,-0.021,-1176,-426,-1328
00:11:38.000,37.42678452,-122.17304993,30.300,-2700394.500,-4292630.500,3855132.750,0.354,0.546,-9.730,0.176,-0.003,-0.021,-1181,-421,-1336
00:11:38.100,37.42678452,-122.17304993,30.300,-2700394.500,-4292630.500,3855132.750,0.409,0.491,-9.776,0.178,-0.001,-0.020,-1178,-426,-1331
00:11:38.100,37.42678452,-122.17304993,30.400,-2700394.500,-4292630.500,3855132.750,0.405,0.551,-9.720,0.180,0.001,-0.019,-1176,-416,-1338
00:11:38.200,37.42678452,-122.17304993,30.400,-2700394.500,-4292630.500,3855132.750,0.421,0.527,-9.713,0.179,0.001,-0.021,-1181,-428,-1326
00:11:38.200,37.42678452,-122.17304993,30.300,-2700394.500,-4292630.500,3855132.750,0.383,0.503,-9.776,0.177,0.002,-0.022,-1171,-423,-1333
00:11:38.300,37.42678452,-122.17304993,30.300,-2700394.500,-4292630.500,3855132.750,0.373,0.534,-9.776,0.177,-0.001,-0.019,-1171,-407,-1323
00:11:38.300,37.42678452,-122.17304993,30.300,-2700394.500,-4292630.500,3855132.750,0.412,0.524,-9.768,0.178,0.002,-0.019,-1171,-433,-1338
00:11:38.400,37.42678452,-122.17304993,30.300,-2700394.500,-4292630.500,3855132.750,0.357,0.527,-9.867,0.178,-0.003,-0.017,-1187,-418,-1346
00:11:38.400,37.42678452,-122.17304993,30.300,-2700394.500,-4292630.500,3855132.750,0.388,0.534,-9.790,0.177,-0.001,-0.019,-1190,-415,-1338
00:11:38.500,37.42678452,-122.17304993,30.300,-2700394.500,-4292630.500,3855132.750,0.407,0.508,-9.766,0.177,-0.009,-0.019,-1187,-416,-1346
00:11:38.500,37.42678452,-122.17304993,30.300,-2700394.500,-4292630.500,3855132.750,0.385,0.541,-9.756,0.176,-0.003,-0.025,-1181,-423,-1328
00:11:38.600,37.42678452,-122.17304993,30.300,-2700394.500,-4292630.500,3855132.750,0.409,0.527,-9.754,0.177,0.001,-0.020,-1182,-423,-1331
00:11:38.600,37.42678452,-122.17304993,30.300,-2700394.500,-4292630.500,3855132.750,0.453,0.591,-9.821,0.176,-0.002,-0.021,-1182,-426,-1341
00:11:38.700,37.42678452,-122.17304993,30.300,-2700394.500,-4292630.500,3855132.750,0.381,0.536,-9.764,0.178,-0.001,-0.021,-1173,-412,-1331
00:11:38.700,37.42678452,-122.17304993,30.300,-2700394.500,-4292630.500,3855132.750,0.388,0.548,-9.821,0.177,0.001,-0.021,-1178,-426,-1333
00:11:38.800,37.42678452,-122.17304993,30.300,-2700394.500,-4292630.500,3855132.750,0.347,0.524,-9.771,0.176,-0.002,-0.019,-1185,-421,-1333
00:11:38.800,37.42678452,-122.17304993,30.300,-2700394.500,-4292630.500,3855132.750,0.424,0.520,-9.711,0.178,0.000,-0.018,-1190,-416,-1338
00:11:38.900,37.42678452,-122.17304993,30.300,-2700394.500,-4292630.500,3855132.750,0.407,0.524,-9.771,0.177,0.000,-0.019,-1181,-415,-1341
00:11:38.900,37.42678452,-122.17304993,30.300,-2700394.500,-4292630.500,3855132.750,0.381,0.555,-9.677,0.173,-0.002,-0.021,-1182,-415,-1328
00:11:38.900,37.42678452,-122.17304993,30.300,-2700394.500,-4292630.500,3855132.750,0.357,0.543,-9.754,0.174,0.001,-0.021,-1176,-407,-1326
00:11:39.000,37.42678452,-122.17304993,30.300,-2700394.500,-4292630.500,3855132.750,0.354,0.563,-9.764,0.175,-0.003,-0.023,-1161,-418,-1318
00:11:39.100,37.42678452,-122.17304993,30.300,-2700394.500,-4292630.500,3855132.750,0.443,0.529,-9.749,0.180,-0.002,-0.020,-1176,-423,-1338
00:11:39.100,37.42678452,-122.17304993,30.300,-2700394.500,-4292630.500,3855132.750,0.457,0.532,-9.735,0.179,-0.001,-0.017,-1182,-426,-1326
00:11:39.200,37.42678452,-122.17304993,30.300,-2700394.500,-4292630.500,3855132.750,0.431,0.539,-9.828,0.177,-0.000,-0.021,-1176,-426,-1348
00:11:39.200,37.42678452,-122.17304993,30.300,-2700394.500,-4292630.500,3855132.750,0.352,0.510,-9.869,0.181,-0.004,-0.017,-1173,-426,-1333
00:11:39.300,37.42678452,-122.17304993,30.300,-2700394.500,-4292630.500,3855132.750,0.376,0.505,-9.713,0.181,-0.002,-0.020,-1192,-421,-1341
00:11:39.300,37.42678452,-122.17304993,30.300,-2700394.500,-4292630.500,3855132.750,0.429,0.517,-9.740,0.177,0.001,-0.022,-1173,-431,-1333
00:11:39.400,37.42678452,-122.17304993,30.300,-2700394.500,-4292630.500,3855132.750,0.407,0.541,-9.804,0.178,0.002,-0.021,-1178,-415,-1321
00:11:39.400,37.42678452,-122.17304993,30.300,-2700394.500,-4292630.500,3855132.750,0.381,0.536,-9.787,0.179,-0.000,-0.022,-1166,-415,-1331
00:11:39.500,37.42678452,-122.17304993,30.300,-2700394.500,-4292630.500,3855132.750,0.409,0.532,-9.737,0.179,0.001,-0.022,-1178,-421,-1323
00:11:39.500,37.42678452,-122.17304993,30.300,-2700394.500,-4292630.500,3855132.750,0.393,0.460,-9.744,0.179,-0.003,-0.021,-1171,-416,-1341
00:11:39.600,37.42678452,-122.17304993,30.300,-2700394.500,-4292630.500,3855132.750,0.472,0.503,-9.689,0.178,-0.002,-0.019,-1181,-418,-1336
00:11:39.600,37.42678452,-122.17304993,30.200,-2700394.500,-4292630.500,3855132.500,0.419,0.484,-9.742,0.177,-0.002,-0.019,-1200,-423,-1323
00:11:39.700,37.42678452,-122.17304993,30.200,-2700394.500,-4292630.500,3855132.500,0.393,0.532,-9.795,0.176,-0.006,-0.018,-1178,-418,-1321
00:11:39.700,37.42678452,-122.17304993,30.200,-2700394.500,-4292630.500,3855132.500,0.426,0.457,-9.730,0.176,-0.005,-0.018,-1176,-421,-1333
00:11:39.800,37.42678452,-122.17304993,30.200,-2700394.500,-4292630.500,3855132.500,0.376,0.546,-9.783,0.179,-0.003,-0.019,-1178,-418,-1338
00:11:39.800,37.42678452,-122.17304993,30.200,-2700394.500,-4292630.500,3855132.500,0.357,0.551,-9.776,0.177,-0.005,-0.020,-1187,-410,-1341
00:11:39.900,37.42678452,-122.17304993,30.200,-2700394.500,-4292630.500,3855132.500,0.371,0.541,-9.816,0.174,0.002,-0.019,-1185,-418,-1343
00:11:39.900,37.42678452,-122.17304993,30.200,-2700394.500,-4292630.500,3855132.500,0.474,0.584,-9.697,0.178,-0.002,-0.020,-1182,-421,-1328
00:11:39.900,37.42678452,-122.17304993,30.200,-2700394.500,-4292630.500,3855132.500,0.409,0.541,-9.711,0.176,0.001,-0.021,-1181,-418,-1338
00:11:40.000,37.42678452,-122.17304993,30.200,-2700394.500,-4292630.500,3855132.500,0.330,0.491,-9.787,0.176,-0.001,-0.020,-1182,-423,-1331
00:11:40.100,37.42678452,-122.17304993,30.200,-2700394.500,-4292630.500,3855132.500,0.388,0.555,-9.658,0.179,-0.001,-0.017,-1176,-421,-1336
00:11:40.100,37.42678452,-122.17304993,30.200,-2700394.500,-4292630.500,3855132.500,0.412,0.517,-9.835,0.175,-0.002,-0.020,-1185,-416,-1341
00:11:40.200,37.42678452,-122.17304993,30.200,-2700394.500,-4292630.500,3855132.750,0.407,0.529,-9.742,0.180,-0.003,-0.019,-1176,-421,-1336
00:11:40.200,37.42678452,-122.17304993,30.200,-2700394.500,-4292630.500,3855132.750,0.426,0.536,-9.785,0.179,-0.003,-0.022,-1176,-421,-1338
00:11:40.300,37.42678452,-122.17304993,30.200,-2700394.500,-4292630.500,3855132.500,0.436,0.512,-9.708,0.178,-0.001,-0.021,-1173,-418,-1341
00:11:40.300,37.42678452,-122.17304993,30.200,-2700394.500,-4292630.500,3855132.500,0.390,0.543,-9.744,0.178,0.001,-0.021,-1173,-418,-1323
00:11:40.400,37.42678452,-122.17304993,30.200,-2700394.500,-4292630.500,3855132.750,0.409,0.496,-9.744,0.176,-0.000,-0.021,-1181,-421,-1328
00:11:40.400,37.42678452,-122.17304993,30.200,-2700394.500,-4292630.500,3855132.750,0.467,0.575,-9.843,0.181,0.001,-0.019,-1168,-416,-1331
00:11:40.500,37.42678452,-122.17304993,30.200,-2700394.500,-4292630.500,3855132.750,0.419,0.608,-9.735,0.178,-0.001,-0.021,-1168,-412,-1331
00:11:40.500,37.42678452,-122.17304993,30.200,-2700394.500,-4292630.500,3855132.750,0.378,0.520,-9.795,0.178,-0.001,-0.022,-1171,-418,-1333
00:11:40.600,37.42678452,-122.17304993,30.200,-2700394.500,-4292630.500,3855132.750,0.395,0.529,-9.780,0.177,-0.001,-0.022,-1181,-423,-1331
00:11:40.600,37.42678452,-122.17304993,30.200,-2700394.500,-4292630.500,3855132.750,0.397,0.527,-9.838,0.179,-0.005,-0.019,-1176,-415,-1328
00:11:40.700,37.42678452,-122.17304993,30.200,-2700394.500,-4292630.500,3855132.750,0.378,0.546,-9.804,0.175,-0.002,-0.019,-1182,-412,-1328
00:11:40.700,37.42678452,-122.17304993,30.200,-2700394.500,-4292630.500,3855132.750,0.395,0.534,-9.768,0.176,0.001,-0.020,-1182,-421,-1323
00:11:40.800,37.42678452,-122.17304993,30.100,-2700394.500,-4292630.500,3855132.500,0.405,0.555,-9.809,0.179,-0.002,-0.019,-1176,-418,-1321
00:11:40.800,37.42678452,-122.17304993,30.100,-2700394.500,-4292630.500,3855132.500,0.373,0.551,-9.723,0.177,0.000,-0.020,-1182,-421,-1341
00:11:40.900,37.42678452,-122.17304993,30.200,-2700394.500,-4292630.500,3855132.750,0.378,0.522,-9.658,0.177,0.000,-0.020,-1173,-415,-1331
00:11:40.900,37.42678452,-122.17304993,30.200,-2700394.500,-4292630.500,3855132.750,0.448,0.558,-9.744,0.179,-0.002,-0.018,-1161,-416,-1326
00:11:40.900,37.42678452,-122.17304993,30.200,-2700394.500,-4292630.500,3855132.750,0.431,0.515,-9.764,0.176,-0.005,-0.022,-1181,-421,-1331
00:11:41.000,37.42678452,-122.17304993,30.200,-2700394.500,-4292630.500,3855132.750,0.400,0.553,-9.740,0.175,-0.002,-0.021,-1176,-418,-1338
00:11:41.100,37.42678452,-122.17304993,30.100,-2700394.500,-4292630.500,3855132.500,0.438,0.505,-9.795,0.177,-0.005,-0.019,-1185,-418,-1338
00:11:41.100,37.42678452,-122.17304993,30.100,-2700394.500,-4292630.500,3855132.500,0.421,0.515,-9.790,0.177,-0.003,-0.022,-1187,-423,-1333
00:11:41.200,37.42678452,-122.17304993,30.100,-2700394.500,-4292630.500,3855132.500,0.409,0.517,-9.785,0.177,-0.002,-0.019,-1185,-418,-1336
00:11:41.200,37.42678452,-122.17304993,30.100,-2700394.500,-4292630.500,3855132.500,0.393,0.524,-9.689,0.175,-0.003,-0.018,-1176,-412,-1323
00:11:41.300,37.42678452,-122.17304993,30.100,-2700394.500,-4292630.500,3855132.500,0.369,0.532,-9.776,0.181,-0.002,-0.019,-1185,-416,-1326
00:11:41.300,37.42678452,-122.17304993,30.100,-2700394.500,-4292630.500,3855132.500,0.409,0.532,-9.689,0.175,-0.001,-0.019,-1171,-418,-1338
00:11:41.400,37.42678452,-122.17304993,30.100,-2700394.500,-4292630.500,3855132.500,0.397,0.587,-9.771,0.177,0.001,-0.020,-1176,-426,-1336
00:11:41.400,37.42678452,-122.17304993,30.100,-2700394.500,-4292630.500,3855132.500,0.436,0.548,-9.766,0.175,0.003,-0.021,-1181,-410,-1341
00:11:41.500,37.42678452,-122.17304993,30.100,-2700394.500,-4292630.500,3855132.500,0.431,0.560,-9.816,0.176,-0.003,-0.017,-1178,-423,-1341
00:11:41.500,37.42678452,-122.17304993,30.100,-2700394.500,-4292630.500,3855132.500,0.366,0.551,-9.785,0.175,-0.003,-0.017,-1178,-421,-1348
00:11:41.600,37.42678452,-122.17304993,30.100,-2700394.500,-4292630.500,3855132.500,0.429,0.555,-9.740,0.178,-0.001,-0.018,-1173,-421,-1326
00:11:41.600,37.42678452,-122.17304993,30.100,-2700394.500,-4292630.500,3855132.500,0.431,0.532,-9.835,0.175,0.000,-0.021,-1178,-416,-1343
00:11:41.700,37.42678452,-122.17304993,30.100,-2700394.500,-4292630.500,3855132.500,0.448,0.505,-9.783,0.179,0.002,-0.020,-1166,-423,-1331
00:11:41.700,37.42678452,-122.17304993,30.100,-2700394.500,-4292630.500,3855132.500,0.393,0.522,-9.773,0.181,-0.004,-0.020,-1173,-410,-1336
00:11:41.800,37.42678452,-122.17304993,30.100,-2700394.500,-4292630.500,3855132.500,0.448,0.512,-9.790,0.176,-0.003,-0.023,-1176,-407,-1331
00:11:41.800,37.42678452,-122.17304993,30.100,-2700394.500,-4292630.500,3855132.500,0.405,0.563,-9.768,0.175,-0.003,-0.023,-1187,-415,-1338
00:11:41.900,37.42678452,-122.17304993,30.100,-2700394.500,-4292630.500,3855132.500,0.438,0.469,-9.833,0.178,-0.002,-0.020,-1182,-405,-1336
00:11:41.900,37.42678452,-122.17304993,30.100,-2700394.500,-4292630.500,3855132.500,0.385,0.553,-9.723,0.176,-0.003,-0.021,-1182,-418,-1338
00:11:41.900,37.42678452,-122.17304993,30.100,-2700394.500,-4292630.500,3855132.500,0.383,0.520,-9.819,0.175,-0.001,-0.018,-1182,-407,-1331
00:11:42.000,37.42678452,-122.17304993,30.100,-2700394.500,-4292630.500,3855132.500,0.397,0.548,-9.831,0.177,-0.004,-0.022,-1176,-410,-1346
00:11:42.100,37.42678452,-122.17304993,30.100,-2700394.500,-4292630.500,3855132.500,0.383,0.486,-9.766,0.175,0.003,-0.021,-1185,-405,-1326
00:11:42.100,37.42678452,-122.17304993,30.100,-2700394.500,-4292630.500,3855132.500,0.390,0.529,-9.754,0.176,-0.003,-0.019,-1176,-415,-1338
00:11:42.200,37.42678452,-122.17304993,30.100,-2700394.500,-4292630.500,3855132.500,0.433,0.512,-9.804,0.174,-0.002,-0.022,-1181,-415,-1341
00:11:42.200,37.42678452,-122.17304993,30.100,-2700394.500,-4292630.500,3855132.500,0.385,0.567,-9.711,0.179,-0.003,-0.021,-1181,-416,-1336
00:11:42.300,37.42678452,-122.17304993,30.100,-2700394.500,-4292630.500,3855132.500,0.433,0.503,-9.804,0.178,0.000,-0.019,-1181,-415,-1326
00:11:42.300,37.42678452,-122.17304993,30.100,-2700394.500,-4292630.500,3855132.500,0.414,0.517,-9.771,0.178,-0.001,-0.019,-1185,-418,-1333
00:11:42.400,37.42678452,-122.17304993,30.000,-2700394.250,-4292630.500,3855132.500,0.371,0.546,-9.639,0.175,-0.003,-0.022,-1181,-418,-1336
00:11:42.400,37.42678452,-122.17304993,30.000,-2700394.250,-4292630.500,3855132.500,0.397,0.565,-9.694,0.178,-0.003,-0.018,-1182,-415,-1336
00:11:42.500,37.42678452,-122.17304993,30.100,-2700394.500,-4292630.500,3855132.500,0.433,0.536,-9.754,0.177,0.002,-0.021,-1182,-415,-1336
00:11:42.500,37.42678452,-122.17304993,30.100,-2700394.500,-4292630.500,3855132.500,0.436,0.563,-9.697,0.180,-0.004,-0.021,-1192,-416,-1333
00:11:42.600,37.42678452,-122.17304993,30.100,-2700394.500,-4292630.500,3855132.500,0.395,0.579,-9.847,0.181,0.000,-0.020,-1182,-416,-1333
00:11:42.600,37.42678452,-122.17304993,30.100,-2700394.500,-4292630.500,3855132.500,0.393,0.524,-9.725,0.178,-0.000,-0.021,-1182,-418,-1333
00:11:42.700,37.42678452,-122.17304993,30.100,-2700394.500,-4292630.500,3855132.500,0.436,0.484,-9.799,0.175,-0.002,-0.022,-1182,-416,-1343
00:11:42.700,37.42678452,-122.17304993,30.100,-2700394.500,-4292630.500,3855132.500,0.400,0.543,-9.768,0.179,-0.002,-0.016,-1178,-416,-1336
00:11:42.800,37.42678452,-122.17304993,30.100,-2700394.500,-4292630.500,3855132.500,0.417,0.534,-9.787,0.178,-0.000,-0.019,-1192,-416,-1358
00:11:42.800,37.42678452,-122.17304993,30.100,-2700394.500,-4292630.500,3855132.500,0.479,0.541,-9.795,0.179,-0.003,-0.020,-1171,-415,-1333
00:11:42.900,37.42678452,-122.17304993,30.000,-2700394.250,-4292630.500,3855132.500,0.426,0.486,-9.771,0.181,-0.002,-0.019,-1192,-428,-1323
00:11:42.900,37.42678452,-122.17304993,30.000,-2700394.250,-4292630.500,3855132.500,0.395,0.539,-9.776,0.177,-0.002,-0.021,-1195,-433,-1333
00:11:42.900,37.42678452,-122.17304993,30.000,-2700394.250,-4292630.500,3855132.500,0.402,0.517,-9.742,0.175,0.001,-0.023,-1181,-412,-1331
00:11:43.000,37.42678452,-122.17304993,30.000,-2700394.250,-4292630.500,3855132.500,0.441,0.567,-9.766,0.177,0.001,-0.018,-1181,-416,-1336
00:11:43.100,37.42678452,-122.17304993,30.000,-2700394.250,-4292630.500,3855132.500,0.347,0.555,-9.752,0.176,-0.003,-0.017,-1185,-412,-1343
00:11:43.100,37.42678452,-122.17304993,30.000,-2700394.250,-4292630.500,3855132.500,0.326,0.560,-9.756,0.173,-0.000,-0.023,-1185,-426,-1331
00:11:43.200,37.42678452,-122.17304993,30.000,-2700394.250,-4292630.500,3855132.500,0.373,0.500,-9.670,0.179,-0.001,-0.019,-1185,-423,-1338
00:11:43.200,37.42678452,-122.17304993,30.000,-2700394.250,-4292630.500,3855132.500,0.381,0.534,-9.838,0.177,-0.003,-0.017,-1178,-415,-1333
00:11:43.300,37.42678452,-122.17304993,30.000,-2700394.250,-4292630.500,3855132.500,0.385,0.560,-9.728,0.177,-0.002,-0.021,-1181,-416,-1333
00:11:43.300,37.42678452,-122.17304993,30.000,-2700394.250,-4292630.500,3855132.500,0.376,0.551,-9.756,0.176,-0.003,-0.019,-1181,-423,-1331
00:11:43.400,37.42678452,-122.17304993,30.000,-2700394.250,-4292630.500,3855132.500,0.409,0.563,-9.766,0.177,0.001,-0.020,-1187,-418,-1333
00:11:43.400,37.42678452,-122.17304993,30.000,-2700394.250,-4292630.500,3855132.500,0.402,0.500,-9.708,0.178,0.001,-0.018,-1187,-415,-1338
00:11:43.500,37.42678452,-122.17304993,30.000,-2700394.250,-4292630.500,3855132.500,0.371,0.517,-9.728,0.175,-0.003,-0.021,-1185,-418,-1328
00:11:43.500,37.42678452,-122.17304993,30.000,-2700394.250,-4292630.500,3855132.500,0.409,0.522,-9.752,0.181,-0.001,-0.022,-1182,-416,-1331
00:11:43.600,37.42678452,-122.17304993,30.000,-2700394.250,-4292630.500,3855132.500,0.402,0.539,-9.766,0.177,-0.002,-0.018,-1182,-415,-1328
00:11:43.600,37.42678452,-122.17304993,30.000,-2700394.250,-4292630.500,3855132.500,0.400,0.505,-9.787,0.176,0.003,-0.020,-1185,-410,-1336
00:11:43.700,37.42678452,-122.17304993,30.000,-2700394.250,-4292630.500,3855132.500,0.436,0.529,-9.855,0.178,-0.001,-0.020,-1185,-416,-1331
00:11:43.700,37.42678452,-122.17304993,30.000,-2700394.250,-4292630.500,3855132.500,0.455,0.563,-9.826,0.176,0.000,-0.022,-1182,-416,-1336
00:11:43.800,37.42678452,-122.17304993,30.000,-2700394.250,-4292630.500,3855132.500,0.426,0.505,-9.845,0.177,0.001,-0.019,-1178,-415,-1333
00:11:43.800,37.42678452,-122.17304993,30.000,-2700394.250,-4292630.500,3855132.500,0.412,0.505,-9.644,0.177,-0.003,-0.019,-1185,-416,-1331
00:11:43.900,37.42678452,-122.17304993,30.000,-2700394.250,-4292630.500,3855132.500,0.419,0.510,-9.737,0.178,-0.002,-0.018,-1187,-418,-1338
00:11:43.900,37.42678452,-122.17304993,30.000,-2700394.250,-4292630.500,3855132.500,0.407,0.565,-9.764,0.179,0.001,-0.021,-1176,-421,-1331
00:11:43.900,37.42678452,-122.17304993,30.000,-2700394.250,-4292630.500,3855132.500,0.395,0.558,-9.737,0.174,0.002,-0.022,-1185,-423,-1328
00:11:44.000,37.42678452,-122.17304993,30.000,-2700394.250,-4292630.500,3855132.500,0.421,0.498,-9.799,0.174,-0.001,-0.021,-1185,-416,-1328
00:11:44.100,37.42678452,-122.17304993,30.000,-2700394.250,-4292630.500,3855132.500,0.390,0.515,-9.754,0.178,-0.003,-0.020,-1176,-423,-1336
00:11:44.100,37.42678452,-122.17304993,30.000,-2700394.250,-4292630.500,3855132.500,0.436,0.534,-9.764,0.179,-0.005,-0.018,-1185,-402,-1323
00:11:44.200,37.42678452,-122.17304993,30.000,-2700394.250,-4292630.500,3855132.500,0.443,0.512,-9.761,0.179,-0.005,-0.017,-1178,-410,-1336
00:11:44.200,37.42678452,-122.17304993,30.000,-2700394.250,-4292630.500,3855132.500,0.397,0.522,-9.787,0.174,-0.002,-0.018,-1182,-412,-1333
00:11:44.300,37.42678452,-122.17304993,30.100,-2700394.250,-4292630.500,3855132.750,0.388,0.570,-9.771,0.178,0.002,-0.023,-1185,-421,-1338
00:11:44.300,37.42678452,-122.17304993,30.100,-2700394.250,-4292630.500,3855132.750,0.424,0.551,-9.677,0.177,-0.004,-0.018,-1176,-410,-1323
00:11:44.400,37.42678452,-122.17304993,30.100,-2700394.250,-4292630.500,3855132.750,0.402,0.594,-9.720,0.178,0.001,-0.019,-1181,-426,-1343
00:11:44.400,37.42678452,-122.17304993,30.100,-2700394.250,-4292630.500,3855132.750,0.371,0.546,-9.802,0.177,-0.002,-0.017,-1178,-397,-1331
00:11:44.500,37.42678452,-122.17304993,30.100,-2700394.250,-4292630.500,3855132.750,0.493,0.529,-9.747,0.178,-0.001,-0.023,-1176,-421,-1351
00:11:44.500,37.42678452,-122.17304993,30.100,-2700394.250,-4292630.500,3855132.750,0.464,0.532,-9.732,0.180,-0.002,-0.019,-1173,-423,-1346
00:11:44.600,37.42678833,-122.17304993,30.100,-2700394.250,-4292630.500,3855132.750,0.433,0.543,-9.819,0.178,-0.000,-0.017,-1185,-410,-1356
00:11:44.600,37.42678833,-122.17304993,30.100,-2700394.250,-4292630.500,3855132.750,0.378,0.551,-9.764,0.175,0.001,-0.020,-1173,-415,-1323
00:11:44.700,37.42678833,-122.17304993,30.100,-2700394.250,-4292630.500,3855132.750,0.436,0.577,-9.831,0.175,-0.003,-0.021,-1181,-416,-1326
00:11:44.700,37.42678833,-122.17304993,30.100,-2700394.250,-4292630.500,3855132.750,0.390,0.582,-9.761,0.177,-0.006,-0.020,-1190,-421,-1336
00:11:44.800,37.42678833,-122.17304993,30.100,-2700394.250,-4292630.500,3855132.750,0.309,0.555,-9.661,0.178,-0.002,-0.018,-1178,-412,-1331
00:11:44.800,37.42678833,-122.17304993,30.100,-2700394.250,-4292630.500,3855132.750,0.397,0.520,-9.699,0.176,0.001,-0.021,-1171,-421,-1338
00:11:44.900,37.42678833,-122.17304993,30.200,-2700394.250,-4292630.500,3855132.750,0.376,0.479,-9.687,0.177,-0.002,-0.020,-1187,-415,-1338
00:11:44.900,37.42678833,-122.17304993,30.200,-2700394.250,-4292630.500,3855132.750,0.366,0.505,-9.807,0.176,-0.004,-0.020,-1185,-415,-1333
00:11:44.900,37.42678833,-122.17304993,30.200,-2700394.250,-4292630.500,3855132.750,0.397,0.563,-9.742,0.178,-0.004,-0.020,-1173,-412,-1326
00:11:45.000,37.42678833,-122.17304993,30.200,-2700394.250,-4292630.500,3855132.750,0.364,0.529,-9.713,0.174,-0.003,-0.019,-1182,-421,-1341
00:11:45.100,37.42678833,-122.17304993,30.200,-2700394.250,-4292630.500,3855132.750,0.412,0.529,-9.799,0.177,0.003,-0.022,-1187,-415,-1333
00:11:45.100,37.42678833,-122.17304993,30.200,-2700394.250,-4292630.500,3855132.750,0.450,0.486,-9.744,0.175,0.002,-0.022,-1176,-405,-1336
00:11:45.200,37.42678833,-122.17304993,30.200,-2700394.250,-4292630.500,3855132.750,0.395,0.524,-9.792,0.179,-0.001,-0.021,-1181,-423,-1341
00:11:45.200,37.42678833,-122.17304993,30.200,-2700394.250,-4292630.500,3855132.750,0.362,0.534,-9.783,0.179,0.001,-0.022,-1187,-410,-1331
00:11:45.300,37.42678833,-122.17304993,30.200,-2700394.250,-4292630.500,3855132.750,0.362,0.527,-9.776,0.177,-0.001,-0.019,-1181,-412,-1336
00:11:45.300,37.42678833,-122.17304993,30.200,-2700394.250,-4292630.500,3855132.750,0.397,0.548,-9.811,0.175,0.001,-0.020,-1171,-418,-1343
00:11:45.400,37.42678833,-122.17304993,30.300,-2700394.250,-4292630.500,3855132.750,0.357,0.551,-9.799,0.177,-0.001,-0.020,-1181,-416,-1331
00:11:45.400,37.42678833,-122.17304993,30.300,-2700394.250,-4292630.500,3855132.750,0.390,0.512,-9.742,0.178,-0.002,-0.019,-1187,-407,-1321
00:11:45.500,37.42678833,-122.17304993,30.300,-2700394.250,-4292630.500,3855132.750,0.381,0.527,-9.785,0.176,0.000,-0.019,-1171,-416,-1341
00:11:45.500,37.42678833,-122.17304993,30.300,-2700394.250,-4292630.500,3855132.750,0.421,0.582,-9.711,0.181,-0.000,-0.020,-1182,-421,-1341
00:11:45.600,37.42678833,-122.17304993,30.300,-2700394.250,-4292630.500,3855132.750,0.381,0.534,-9.723,0.177,-0.004,-0.023,-1176,-421,-1348
00:11:45.600,37.42678833,-122.17304993,30.300,-2700394.250,-4292630.500,3855132.750,0.397,0.472,-9.716,0.178,-0.004,-0.018,-1176,-407,-1323
00:11:45.700,37.42678833,-122.17304993,30.300,-2700394.250,-4292630.500,3855133.000,0.414,0.512,-9.802,0.175,-0.004,-0.021,-1181,-416,-1336
00:11:45.700,37.42678833,-122.17304993,30.300,-2700394.250,-4292630.500,3855133.000,0.460,0.498,-9.744,0.177,-0.000,-0.020,-1173,-402,-1326
00:11:45.800,37.42678833,-122.17304993,30.300,-2700394.250,-4292630.500,3855133.000,0.385,0.570,-9.732,0.177,0.001,-0.019,-1187,-428,-1348
00:11:45.800,37.42678833,-122.17304993,30.300,-2700394.250,-4292630.500,3855133.000,0.405,0.563,-9.924,0.178,-0.001,-0.022,-1187,-421,-1333
00:11:45.900,37.42678833,-122.17304993,30.300,-2700394.250,-4292630.500,3855133.000,0.445,0.587,-9.807,0.178,-0.000,-0.020,-1187,-418,-1346
00:11:45.900,37.42678833,-122.17304993,30.300,-2700394.250,-4292630.500,3855133.000,0.378,0.548,-9.773,0.178,-0.005,-0.019,-1173,-421,-1338
00:11:46.000,37.42678833,-122.17304993,30.300,-2700394.250,-4292630.500,3855133.000,0.462,0.572,-9.802,0.179,0.002,-0.021,-1192,-426,-1346
00:11:46.000,37.42678833,-122.17304993,30.400,-2700394.250,-4292630.500,3855133.000,0.412,0.505,-9.673,0.178,0.002,-0.020,-1171,-402,-1336
00:11:46.100,37.42678833,-122.17304993,30.400,-2700394.250,-4292630.500,3855133.000,0.414,0.532,-9.835,0.177,-0.000,-0.022,-1176,-423,-1331
00:11:46.100,37.42678833,-122.17304993,30.400,-2700394.250,-4292630.500,3855133.000,0.395,0.534,-9.771,0.180,0.001,-0.019,-1181,-400,-1331
00:11:46.200,37.42678833,-122.17304993,30.400,-2700394.250,-4292630.500,3855133.000,0.376,0.522,-9.711,0.181,-0.002,-0.020,-1168,-405,-1328
00:11:46.200,37.42678833,-122.17304993,30.400,-2700394.250,-4292630.500,3855133.000,0.369,0.515,-9.819,0.176,0.001,-0.022,-1178,-405,-1341
00:11:46.300,37.42678833,-122.17304993,30.400,-2700394.250,-4292630.500,3855133.000,0.421,0.527,-9.694,0.177,0.001,-0.019,-1178,-402,-1338
00:11:46.300,37.42678833,-122.17304993,30.400,-2700394.250,-4292630.500,3855133.000,0.364,0.541,-9.756,0.178,0.001,-0.021,-1178,-410,-1326
00:11:46.400,37.42678833,-122.17304993,30.400,-2700394.250,-4292630.500,3855133.000,0.381,0.532,-9.761,0.176,-0.001,-0.022,-1181,-405,-1326
00:11:46.400,37.42678833,-122.17304993,30.400,-2700394.250,-4292630.500,3855133.000,0.419,0.503,-9.768,0.176,-0.001,-0.019,-1178,-428,-1328
00:11:46.500,37.42678833,-122.17304993,30.400,-2700394.250,-4292630.500,3855133.000,0.421,0.517,-9.747,0.174,-0.004,-0.020,-1185,-410,-1343
00:11:46.500,37.42678833,-122.17304993,30.400,-2700394.250,-4292630.500,3855133.000,0.378,0.529,-9.816,0.176,0.001,-0.019,-1171,-421,-1333
00:11:46.600,37.42678833,-122.17304993,30.500,-2700394.250,-4292630.500,3855133.000,0.390,0.551,-9.756,0.176,-0.002,-0.021,-1182,-431,-1326
00:11:46.600,37.42678833,-122.17304993,30.500,-2700394.250,-4292630.500,3855133.000,0.421,0.510,-9.859,0.175,-0.004,-0.021,-1171,-410,-1336
00:11:46.700,37.42678833,-122.17304993,30.500,-2700394.250,-4292630.500,3855133.000,0.388,0.551,-9.747,0.178,-0.002,-0.023,-1176,-415,-1333
00:11:46.700,37.42678833,-122.17304993,30.500,-2700394.250,-4292630.500,3855133.000,0.340,0.515,-9.756,0.180,-0.002,-0.020,-1173,-421,-1333
00:11:46.800,37.42678833,-122.17304230,30.500,-2700394.250,-4292630.500,3855133.000,0.417,0.534,-9.778,0.178,-0.001,-0.016,-1178,-428,-1338
00:11:46.800,37.42678833,-122.17304230,30.500,-2700394.250,-4292630.500,3855133.000,0.436,0.520,-9.759,0.178,0.001,-0.019,-1176,-410,-1331
00:11:46.900,37.42678833,-122.17304230,30.500,-2700394.250,-4292630.500,3855133.000,0.476,0.515,-9.855,0.179,-0.002,-0.021,-1181,-402,-1328
00:11:46.900,37.42678833,-122.17304230,30.500,-2700394.250,-4292630.500,3855133.000,0.438,0.505,-9.811,0.180,-0.000,-0.022,-1176,-415,-1336
00:11:47.000,37.42678833,-122.17304230,30.500,-2700394.250,-4292630.500,3855133.000,0.366,0.558,-9.756,0.175,0.000,-0.020,-1181,-418,-1336
00:11:47.000,37.42678833,-122.17304230,30.600,-2700394.250,-4292630.500,3855133.250,0.462,0.505,-9.728,0.178,-0.001,-0.022,-1190,-418,-1343
00:11:47.100,37.42678833,-122.17304230,30.600,-2700394.250,-4292630.500,3855133.250,0.388,0.551,-9.730,0.178,-0.003,-0.020,-1178,-407,-1336
00:11:47.100,37.42678833,-122.17304230,30.600,-2700394.250,-4292630.500,3855133.250,0.443,0.570,-9.728,0.173,0.001,-0.019,-1187,-416,-1316
00:11:47.200,37.42678833,-122.17304230,30.600,-2700394.250,-4292630.500,3855133.250,0.373,0.529,-9.732,0.177,-0.001,-0.018,-1181,-415,-1328
00:11:47.200,37.42678833,-122.17304230,30.600,-2700394.250,-4292630.500,3855133.250,0.378,0.563,-9.744,0.177,-0.002,-0.019,-1176,-415,-1328
00:11:47.300,37.42678833,-122.17304230,30.600,-2700394.250,-4292630.500,3855133.250,0.376,0.484,-9.778,0.179,0.000,-0.023,-1176,-421,-1343
00:11:47.300,37.42678833,-122.17304230,30.600,-2700394.250,-4292630.500,3855133.250,0.345,0.551,-9.744,0.177,-0.004,-0.020,-1163,-412,-1326
00:11:47.400,37.42678833,-122.17304230,30.600,-2700394.250,-4292630.500,3855133.250,0.369,0.565,-9.720,0.175,0.001,-0.022,-1187,-423,-1333
00:11:47.400,37.42678833,-122.17304230,30.600,-2700394.250,-4292630.500,3855133.250,0.381,0.541,-9.744,0.176,-0.003,-0.021,-1181,-407,-1336
00:11:47.500,37.42678833,-122.17304230,30.700,-2700394.250,-4292631.000,3855133.250,0.359,0.539,-9.761,0.176,0.002,-0.021,-1182,-415,-1331
00:11:47.500,37.42678833,-122.17304230,30.700,-2700394.250,-4292631.000,3855133.250,0.409,0.517,-9.732,0.177,-0.004,-0.020,-1181,-410,-1336
00:11:47.600,37.42678833,-122.17304230,30.700,-2700394.250,-4292631.000,3855133.250,0.419,0.536,-9.752,0.175,-0.007,-0.019,-1181,-412,-1336
00:11:47.600,37.42678833,-122.17304230,30.700,-2700394.250,-4292631.000,3855133.250,0.352,0.510,-9.773,0.177,0.000,-0.022,-1168,-416,-1333
00:11:47.700,37.42678833,-122.17304230,30.700,-2700394.250,-4292631.000,3855133.250,0.345,0.536,-9.747,0.176,-0.003,-0.021,-1171,-407,-1341
00:11:47.700,37.42678833,-122.17304230,30.700,-2700394.250,-4292631.000,3855133.250,0.357,0.553,-9.773,0.178,-0.001,-0.021,-1178,-421,-1328
00:11:47.800,37.42678833,-122.17304230,30.700,-2700394.250,-4292631.000,3855133.250,0.323,0.488,-9.826,0.180,0.000,-0.017,-1182,-418,-1336
00:11:47.800,37.42678833,-122.17304230,30.700,-2700394.250,-4292631.000,3855133.250,0.390,0.572,-9.773,0.178,-0.003,-0.022,-1181,-415,-1338
00:11:47.900,37.42678833,-122.17304230,30.700,-2700394.250,-4292631.000,3855133.250,0.402,0.541,-9.843,0.178,-0.004,-0.023,-1166,-410,-1333
00:11:47.900,37.42678833,-122.17304230,30.700,-2700394.250,-4292631.000,3855133.250,0.412,0.496,-9.790,0.177,-0.001,-0.022,-1178,-423,-1323
00:11:47.900,37.42678833,-122.17304230,30.700,-2700394.250,-4292631.000,3855133.250,0.357,0.479,-9.737,0.179,-0.002,-0.019,-1181,-416,-1343
00:11:48.000,37.42678833,-122.17304230,30.700,-2700394.250,-4292631.000,3855133.250,0.417,0.555,-9.735,0.178,-0.003,-0.020,-1181,-405,-1326
00:11:48.100,37.42678833,-122.17304230,30.700,-2700394.250,-4292631.000,3855133.250,0.405,0.508,-9.773,0.174,-0.001,-0.021,-1182,-416,-1336
00:11:48.100,37.42678833,-122.17304230,30.700,-2700394.250,-4292631.000,3855133.250,0.362,0.534,-9.764,0.178,-0.001,-0.022,-1168,-416,-1328
00:11:48.200,37.42678833,-122.17304230,30.800,-2700394.250,-4292631.000,3855133.250,0.407,0.467,-9.728,0.175,0.000,-0.021,-1163,-423,-1336
00:11:48.200,37.42678833,-122.17304230,30.800,-2700394.250,-4292631.000,3855133.250,0.405,0.570,-9.809,0.177,-0.001,-0.019,-1178,-416,-1341
00:11:48.300,37.42678833,-122.17304230,30.800,-2700394.250,-4292631.000,3855133.250,0.381,0.527,-9.768,0.177,0.000,-0.020,-1181,-407,-1336
00:11:48.300,37.42678833,-122.17304230,30.800,-2700394.250,-4292631.000,3855133.250,0.417,0.548,-9.814,0.177,0.000,-0.021,-1178,-416,-1328
00:11:48.400,37.42678833,-122.17304230,30.800,-2700394.250,-4292631.000,3855133.500,0.405,0.565,-9.689,0.176,0.001,-0.022,-1178,-410,-1336
00:11:48.400,37.42678833,-122.17304230,30.800,-2700394.250,-4292631.000,3855133.500,0.393,0.579,-9.747,0.177,-0.002,-0.018,-1176,-395,-1341
00:11:48.500,37.42678833,-122.17304230,30.800,-2700394.250,-4292631.000,3855133.500,0.412,0.532,-9.749,0.174,0.001,-0.021,-1182,-418,-1351
00:11:48.500,37.42678833,-122.17304230,30.800,-2700394.250,-4292631.000,3855133.500,0.388,0.488,-9.737,0.179,0.003,-0.018,-1178,-421,-1328
00:11:48.600,37.42678833,-122.17304230,30.800,-2700394.250,-4292631.000,3855133.500,0.443,0.512,-9.756,0.178,-0.002,-0.022,-1187,-426,-1341
00:11:48.600,37.42678833,-122.17304230,30.800,-2700394.250,-4292631.000,3855133.500,0.472,0.539,-9.783,0.182,-0.004,-0.023,-1173,-428,-1338
00:11:48.700,37.42678833,-122.17304230,30.800,-2700394.250,-4292631.000,3855133.500,0.419,0.534,-9.752,0.175,-0.001,-0.022,-1185,-402,-1348
00:11:48.700,37.42678833,-122.17304230,30.800,-2700394.250,-4292631.000,3855133.500,0.373,0.560,-9.732,0.176,0.001,-0.020,-1178,-407,-1348
00:11:48.800,37.42678833,-122.17304230,30.900,-2700394.250,-4292631.000,3855133.500,0.385,0.488,-9.790,0.177,0.000,-0.019,-1173,-421,-1338
00:11:48.800,37.42678833,-122.17304230,30.900,-2700394.250,-4292631.000,3855133.500,0.385,0.524,-9.756,0.181,0.001,-0.020,-1181,-415,-1336
00:11:48.900,37.42678833,-122.17304230,30.800,-2700394.250,-4292631.000,3855133.500,0.448,0.484,-9.814,0.174,0.001,-0.020,-1176,-412,-1336
00:11:48.900,37.42678833,-122.17304230,30.800,-2700394.250,-4292631.000,3855133.500,0.412,0.534,-9.795,0.178,-0.001,-0.020,-1185,-416,-1336
00:11:49.000,37.42678833,-122.17304230,30.800,-2700394.250,-4292631.000,3855133.500,0.414,0.527,-9.771,0.177,-0.002,-0.019,-1171,-410,-1331
00:11:49.000,37.42678833,-122.17304230,30.900,-2700394.250,-4292631.000,3855133.500,0.347,0.565,-9.720,0.177,-0.000,-0.017,-1176,-421,-1318
00:11:49.100,37.42678833,-122.17304230,30.900,-2700394.250,-4292631.000,3855133.500,0.433,0.548,-9.771,0.177,-0.000,-0.020,-1185,-416,-1346
00:11:49.100,37.42678833,-122.17304230,30.900,-2700394.250,-4292631.000,3855133.500,0.438,0.498,-9.687,0.178,-0.004,-0.021,-1182,-421,-1336
00:11:49.200,37.42679214,-122.17304230,30.900,-2700394.250,-4292631.000,3855133.500,0.357,0.543,-9.735,0.180,0.000,-0.021,-1168,-410,-1343
00:11:49.200,37.42679214,-122.17304230,30.900,-2700394.250,-4292631.000,3855133.500,0.381,0.474,-9.701,0.179,-0.002,-0.020,-1173,-426,-1333
00:11:49.300,37.42679214,-122.17304230,30.900,-2700394.250,-4292631.000,3855133.500,0.426,0.479,-9.737,0.179,-0.004,-0.024,-1173,-418,-1326
00:11:49.300,37.42679214,-122.17304230,30.900,-2700394.250,-4292631.000,3855133.500,0.402,0.522,-9.701,0.177,-0.001,-0.021,-1178,-415,-1338
00:11:49.400,37.42679214,-122.17304230,30.900,-2700394.250,-4292631.000,3855133.500,0.409,0.515,-9.747,0.176,-0.003,-0.022,-1190,-426,-1338
00:11:49.400,37.42679214,-122.17304230,30.900,-2700394.250,-4292631.000,3855133.500,0.400,0.522,-9.725,0.181,-0.000,-0.019,-1190,-412,-1336
00:11:49.500,37.42679214,-122.17304230,30.900,-2700394.250,-4292631.000,3855133.500,0.400,0.522,-9.720,0.178,-0.001,-0.019,-1190,-423,-1321
00:11:49.500,37.42679214,-122.17304230,30.900,-2700394.250,-4292631.000,3855133.500,0.373,0.551,-9.720,0.178,-0.004,-0.020,-1178,-421,-1338
00:11:49.600,37.42679214,-122.17304230,30.900,-2700394.250,-4292631.000,3855133.500,0.378,0.551,-9.725,0.174,0.000,-0.020,-1178,-415,-1328
00:11:49.600,37.42679214,-122.17304230,30.900,-2700394.250,-4292631.000,3855133.500,0.407,0.539,-9.838,0.180,-0.002,-0.021,-1173,-421,-1351
00:11:49.700,37.42679214,-122.17304230,30.900,-2700394.250,-4292631.000,3855133.500,0.426,0.517,-9.814,0.179,0.001,-0.017,-1173,-412,-1341
00:11:49.700,37.42679214,-122.17304230,30.900,-2700394.250,-4292631.000,3855133.500,0.369,0.469,-9.732,0.177,0.001,-0.021,-1178,-415,-1326
00:11:49.800,37.42679214,-122.17304230,30.900,-2700394.250,-4292631.000,3855133.500,0.335,0.546,-9.713,0.178,-0.003,-0.023,-1187,-415,-1341
00:11:49.800,37.42679214,-122.17304230,30.900,-2700394.250,-4292631.000,3855133.500,0.407,0.520,-9.828,0.180,0.003,-0.019,-1181,-416,-1333
00:11:49.900,37.42679214,-122.17304230,30.900,-2700394.250,-4292631.000,3855133.500,0.364,0.500,-9.785,0.178,0.001,-0.021,-1192,-415,-1326
00:11:49.900,37.42679214,-122.17304230,30.900,-2700394.250,-4292631.000,3855133.500,0.385,0.594,-9.778,0.177,-0.001,-0.021,-1178,-415,-1323
00:11:50.000,37.42679214,-122.17304230,30.900,-2700394.250,-4292631.000,3855133.500,0.378,0.515,-9.766,0.179,-0.004,-0.021,-1185,-423,-1343
00:11:50.000,37.42679214,-122.17304230,31.000,-2700394.250,-4292631.000,3855133.500,0.441,0.481,-9.859,0.179,-0.001,-0.022,-1182,-415,-1333
00:11:50.100,37.42679214,-122.17304230,30.900,-2700394.250,-4292631.000,3855133.500,0.412,0.553,-9.859,0.177,0.001,-0.019,-1182,-418,-1346
00:11:50.100,37.42679214,-122.17304230,30.900,-2700394.250,-4292631.000,3855133.500,0.417,0.515,-9.704,0.177,-0.003,-0.023,-1178,-416,-1338
00:11:50.200,37.42679214,-122.17304230,31.000,-2700394.250,-4292631.000,3855133.500,0.417,0.479,-9.795,0.177,-0.005,-0.022,-1168,-412,-1336
00:11:50.200,37.42679214,-122.17304230,31.000,-2700394.250,-4292631.000,3855133.500,0.417,0.567,-9.735,0.177,-0.003,-0.020,-1181,-405,-1341
00:11:50.300,37.42679214,-122.17304230,31.000,-2700394.250,-4292631.000,3855133.500,0.417,0.536,-9.730,0.176,0.000,-0.020,-1178,-407,-1356
00:11:50.300,37.42679214,-122.17304230,31.000,-2700394.250,-4292631.000,3855133.500,0.369,0.503,-9.749,0.179,-0.002,-0.020,-1181,-410,-1356
00:11:50.400,37.42679214,-122.17304230,31.000,-2700394.250,-4292631.000,3855133.500,0.407,0.532,-9.799,0.179,-0.002,-0.019,-1178,-423,-1333
00:11:50.400,37.42679214,-122.17304230,31.000,-2700394.250,-4292631.000,3855133.500,0.460,0.553,-9.780,0.180,-0.005,-0.021,-1178,-415,-1343
00:11:50.500,37.42679214,-122.17304230,31.000,-2700394.250,-4292631.000,3855133.500,0.429,0.555,-9.704,0.175,-0.001,-0.020,-1181,-412,-1326
00:11:50.500,37.42679214,-122.17304230,31.000,-2700394.250,-4292631.000,3855133.500,0.433,0.570,-9.862,0.177,0.003,-0.020,-1178,-405,-1351
00:11:50.600,37.42679214,-122.17304230,31.000,-2700394.250,-4292631.000,3855133.500,0.426,0.522,-9.740,0.176,-0.003,-0.020,-1181,-412,-1333
00:11:50.600,37.42679214,-122.17304230,31.000,-2700394.250,-4292631.000,3855133.500,0.393,0.515,-9.759,0.178,-0.002,-0.022,-1178,-428,-1341
00:11:50.700,37.42679214,-122.17304230,31.000,-2700394.250,-4292631.000,3855133.500,0.385,0.582,-9.831,0.178,0.001,-0.018,-1176,-421,-1341
00:11:50.700,37.42679214,-122.17304230,31.000,-2700394.250,-4292631.000,3855133.500,0.345,0.505,-9.792,0.177,-0.002,-0.022,-1178,-431,-1338
00:11:50.800,37.42679214,-122.17304230,31.000,-2700394.250,-4292631.000,3855133.500,0.421,0.572,-9.807,0.177,0.004,-0.022,-1190,-418,-1358
00:11:50.800,37.42679214,-122.17304230,31.000,-2700394.250,-4292631.000,3855133.500,0.347,0.522,-9.804,0.175,-0.001,-0.018,-1171,-405,-1326
00:11:50.900,37.42679214,-122.17304230,31.000,-2700394.250,-4292631.000,3855133.750,0.429,0.567,-9.728,0.177,-0.001,-0.019,-1190,-412,-1336
00:11:50.900,37.42679214,-122.17304230,31.000,-2700394.250,-4292631.000,3855133.750,0.393,0.496,-9.790,0.176,0.000,-0.019,-1173,-415,-1341
00:11:51.000,37.42679214,-122.17304230,31.000,-2700394.250,-4292631.000,3855133.750,0.306,0.505,-9.747,0.181,0.001,-0.020,-1190,-415,-1338
00:11:51.000,37.42679214,-122.17304230,31.100,-2700394.250,-4292631.000,3855133.750,0.364,0.546,-9.783,0.175,-0.003,-0.022,-1200,-426,-1341
00:11:51.100,37.42679214,-122.17304230,31.000,-2700394.250,-4292631.000,3855133.750,0.464,0.527,-9.828,0.176,0.001,-0.019,-1181,-415,-1338
00:11:51.100,37.42679214,-122.17304230,31.000,-2700394.250,-4292631.000,3855133.750,0.381,0.508,-9.761,0.174,-0.001,-0.022,-1178,-416,-1323
00:11:51.200,37.42679214,-122.17304230,31.100,-2700394.250,-4292631.000,3855133.750,0.412,0.515,-9.704,0.177,-0.002,-0.021,-1181,-418,-1341
00:11:51.200,37.42679214,-122.17304230,31.100,-2700394.250,-4292631.000,3855133.750,0.445,0.479,-9.649,0.174,-0.002,-0.019,-1178,-410,-1331
00:11:51.300,37.42679214,-122.17304230,31.100,-2700394.250,-4292631.000,3855133.750,0.417,0.534,-9.778,0.177,0.001,-0.020,-1182,-412,-1333
00:11:51.300,37.42679214,-122.17304230,31.100,-2700394.250,-4292631.000,3855133.750,0.376,0.472,-9.697,0.179,0.000,-0.020,-1181,-415,-1338
00:11:51.400,37.42679214,-122.17304230,31.100,-2700394.250,-4292631.000,3855133.750,0.436,0.515,-9.843,0.177,0.000,-0.018,-1178,-415,-1341
00:11:51.400,37.42679214,-122.17304230,31.100,-2700394.250,-4292631.000,3855133.750,0.371,0.515,-9.787,0.179,0.000,-0.023,-1181,-415,-1336
00:11:51.500,37.42679214,-122.17304230,31.100,-2700394.250,-4292631.000,3855133.750,0.414,0.572,-9.725,0.175,-0.002,-0.023,-1181,-418,-1348
00:11:51.500,37.42679214,-122.17304230,31.100,-2700394.250,-4292631.000,3855133.750,0.453,0.532,-9.780,0.178,-0.004,-0.018,-1173,-421,-1333
00:11:51.600,37.42679214,-122.17304230,31.100,-2700394.250,-4292631.000,3855133.750,0.419,0.565,-9.766,0.179,0.000,-0.019,-1187,-421,-1333
00:11:51.600,37.42679214,-122.17304230,31.100,-2700394.250,-4292631.000,3855133.750,0.450,0.553,-9.823,0.179,-0.002,-0.022,-1182,-418,-1321
00:11:51.700,37.42679214,-122.17304230,31.100,-2700394.250,-4292631.000,3855133.750,0.409,0.555,-9.831,0.178,-0.003,-0.016,-1182,-416,-1351
00:11:51.700,37.42679214,-122.17304230,31.100,-2700394.250,-4292631.000,3855133.750,0.407,0.548,-9.706,0.179,0.001,-0.022,-1166,-421,-1333
00:11:51.800,37.42679214,-122.17304230,31.100,-2700394.250,-4292631.000,3855133.750,0.419,0.529,-9.802,0.180,0.001,-0.021,-1171,-426,-1318
00:11:51.800,37.42679214,-122.17304230,31.100,-2700394.250,-4292631.000,3855133.750,0.388,0.515,-9.744,0.175,0.001,-0.022,-1178,-400,-1338
00:11:51.900,37.42679214,-122.17304230,31.200,-2700394.250,-4292631.000,3855133.750,0.419,0.505,-9.744,0.177,0.001,-0.021,-1185,-415,-1341
00:11:51.900,37.42679214,-122.17304230,31.200,-2700394.250,-4292631.000,3855133.750,0.431,0.553,-9.752,0.178,-0.001,-0.020,-1181,-407,-1331
00:11:52.000,37.42679214,-122.17304230,31.100,-2700394.250,-4292631.000,3855133.750,0.429,0.541,-9.855,0.176,0.000,-0.022,-1163,-416,-1326
00:11:52.000,37.42679214,-122.17304230,31.100,-2700394.250,-4292631.000,3855133.750,0.376,0.491,-9.838,0.177,-0.002,-0.022,-1173,-416,-1328
00:11:52.100,37.42679214,-122.17304230,31.200,-2700394.250,-4292631.000,3855133.750,0.402,0.589,-9.814,0.177,0.002,-0.022,-1187,-412,-1321
00:11:52.100,37.42679214,-122.17304230,31.200,-2700394.250,-4292631.000,3855133.750,0.347,0.503,-9.764,0.177,0.001,-0.019,-1185,-405,-1351
00:11:52.200,37.42679214,-122.17304230,31.200,-2700394.250,-4292631.000,3855133.750,0.469,0.546,-9.776,0.180,-0.001,-0.020,-1185,-407,-1321
00:11:52.200,37.42679214,-122.17304230,31.200,-2700394.250,-4292631.000,3855133.750,0.364,0.539,-9.776,0.179,-0.001,-0.023,-1171,-418,-1336
00:11:52.300,37.42679214,-122.17304230,31.200,-2700394.250,-4292631.000,3855133.750,0.388,0.517,-9.809,0.177,-0.002,-0.017,-1173,-423,-1328
00:11:52.300,37.42679214,-122.17304230,31.200,-2700394.250,-4292631.000,3855133.750,0.373,0.517,-9.728,0.176,-0.001,-0.022,-1187,-415,-1341
00:11:52.400,37.42679214,-122.17304230,31.200,-2700394.250,-4292631.000,3855133.750,0.362,0.541,-9.766,0.175,-0.003,-0.020,-1171,-412,-1356
00:11:52.400,37.42679214,-122.17304230,31.200,-2700394.250,-4292631.000,3855133.750,0.436,0.546,-9.720,0.178,0.000,-0.017,-1182,-412,-1331
00:11:52.500,37.42679214,-122.17304230,31.200,-2700394.250,-4292631.000,3855133.750,0.397,0.515,-9.759,0.179,0.003,-0.020,-1185,-418,-1338
00:11:52.500,37.42679214,-122.17304230,31.200,-2700394.250,-4292631.000,3855133.750,0.424,0.517,-9.785,0.178,-0.002,-0.019,-1185,-412,-1343
00:11:52.600,37.42679214,-122.17304230,31.300,-2700394.250,-4292631.000,3855134.000,0.362,0.508,-9.819,0.177,-0.001,-0.021,-1182,-421,-1341
00:11:52.600,37.42679214,-122.17304230,31.300,-2700394.250,-4292631.000,3855134.000,0.443,0.546,-9.807,0.178,0.000,-0.021,-1182,-412,-1336
00:11:52.700,37.42679214,-122.17304230,31.200,-2700394.250,-4292631.000,3855133.750,0.393,0.541,-9.766,0.181,0.001,-0.022,-1182,-418,-1338
00:11:52.700,37.42679214,-122.17304230,31.200,-2700394.250,-4292631.000,3855133.750,0.383,0.527,-9.740,0.176,-0.003,-0.019,-1182,-423,-1336
00:11:52.800,37.42679214,-122.17304230,31.300,-2700394.250,-4292631.000,3855134.000,0.366,0.546,-9.692,0.175,-0.003,-0.021,-1173,-423,-1341
00:11:52.800,37.42679214,-122.17304230,31.300,-2700394.250,-4292631.000,3855134.000,0.395,0.529,-9.692,0.174,-0.003,-0.020,-1185,-421,-1338
00:11:52.900,37.42679214,-122.17304230,31.200,-2700394.250,-4292631.000,3855133.750,0.405,0.539,-9.838,0.177,-0.001,-0.018,-1187,-416,-1336
00:11:52.900,37.42679214,-122.17304230,31.200,-2700394.250,-4292631.000,3855133.750,0.402,0.539,-9.843,0.178,0.002,-0.017,-1173,-416,-1321
00:11:53.000,37.42679214,-122.17304230,31.300,-2700394.250,-4292631.000,3855134.000,0.412,0.558,-9.802,0.177,-0.000,-0.021,-1182,-407,-1336
00:11:53.000,37.42679214,-122.17304230,31.300,-2700394.250,-4292631.000,3855134.000,0.393,0.472,-9.785,0.175,-0.001,-0.021,-1166,-415,-1333
00:11:53.100,37.42679214,-122.17304230,31.200,-2700394.250,-4292631.000,3855134.000,0.390,0.510,-9.744,0.176,-0.002,-0.022,-1173,-421,-1333
00:11:53.100,37.42679214,-122.17304230,31.200,-2700394.250,-4292631.000,3855134.000,0.402,0.503,-9.811,0.175,0.003,-0.018,-1173,-416,-1323
00:11:53.200,37.42679214,-122.17304230,31.300,-2700394.250,-4292631.000,3855134.000,0.402,0.543,-9.732,0.179,-0.000,-0.019,-1185,-415,-1346
00:11:53.200,37.42679214,-122.17304230,31.300,-2700394.250,-4292631.000,3855134.000,0.417,0.529,-9.708,0.180,-0.002,-0.017,-1178,-416,-1348
00:11:53.300,37.42679214,-122.17304230,31.300,-2700394.250,-4292631.000,3855134.000,0.429,0.551,-9.756,0.176,-0.002,-0.021,-1173,-418,-1331
00:11:53.300,37.42679214,-122.17304230,31.300,-2700394.250,-4292631.000,3855134.000,0.390,0.570,-9.725,0.178,0.005,-0.023,-1187,-405,-1338
00:11:53.400,37.42679214,-122.17304230,31.200,-2700394.250,-4292631.000,3855134.000,0.393,0.551,-9.792,0.177,0.000,-0.019,-1181,-416,-1333
00:11:53.400,37.42679214,-122.17304230,31.200,-2700394.250,-4292631.000,3855134.000,0.376,0.498,-9.855,0.179,-0.001,-0.020,-1190,-407,-1346
00:11:53.500,37.42679214,-122.17304230,31.300,-2700394.250,-4292631.000,3855134.000,0.383,0.510,-9.747,0.177,0.001,-0.021,-1187,-416,-1348
00:11:53.500,37.42679214,-122.17304230,31.300,-2700394.250,-4292631.000,3855134.000,0.441,0.541,-9.728,0.178,0.002,-0.021,-1176,-415,-1333
00:11:53.600,37.42679214,-122.17304230,31.300,-2700394.250,-4292631.000,3855134.000,0.364,0.543,-9.725,0.177,-0.003,-0.022,-1181,-421,-1336
00:11:53.600,37.42679214,-122.17304230,31.300,-2700394.250,-4292631.000,3855134.000,0.414,0.534,-9.780,0.176,-0.002,-0.018,-1182,-415,-1338
00:11:53.700,37.42679214,-122.17304230,31.300,-2700394.250,-4292631.000,3855134.000,0.397,0.563,-9.792,0.176,-0.001,-0.019,-1187,-416,-1343
00:11:53.700,37.42679214,-122.17304230,31.300,-2700394.250,-4292631.000,3855134.000,0.414,0.572,-9.761,0.178,-0.003,-0.022,-1185,-423,-1341
00:11:53.800,37.42679214,-122.17304230,31.300,-2700394.250,-4292631.000,3855134.000,0.347,0.520,-9.833,0.177,-0.001,-0.021,-1182,-418,-1341
00:11:53.800,37.42679214,-122.17304230,31.300,-2700394.250,-4292631.000,3855134.000,0.445,0.527,-9.697,0.174,-0.002,-0.020,-1176,-407,-1333
00:11:53.900,37.42679214,-122.17304230,31.300,-2700394.250,-4292631.000,3855134.000,0.448,0.539,-9.725,0.177,-0.004,-0.022,-1178,-421,-1338
00:11:53.900,37.42679214,-122.17304230,31.300,-2700394.250,-4292631.000,3855134.000,0.414,0.553,-9.761,0.176,-0.003,-0.022,-1178,-405,-1328
00:11:54.000,37.42679214,-122.17304230,31.300,-2700394.250,-4292631.000,3855134.000,0.366,0.551,-9.749,0.177,-0.000,-0.020,-1181,-426,-1338
00:11:54.000,37.42679214,-122.17304230,31.300,-2700394.250,-4292631.000,3855134.000,0.429,0.548,-9.766,0.178,0.001,-0.020,-1171,-433,-1338
00:11:54.100,37.42679214,-122.17304230,31.400,-2700394.250,-4292631.000,3855134.000,0.472,0.505,-9.756,0.179,0.001,-0.018,-1181,-416,-1336
00:11:54.100,37.42679214,-122.17304230,31.400,-2700394.250,-4292631.000,3855134.000,0.388,0.476,-9.713,0.178,-0.003,-0.021,-1173,-415,-1351
00:11:54.200,37.42679214,-122.17304230,31.400,-2700394.250,-4292631.000,3855134.000,0.443,0.551,-9.797,0.178,-0.005,-0.021,-1181,-412,-1338
00:11:54.200,37.42679214,-122.17304230,31.400,-2700394.250,-4292631.000,3855134.000,0.376,0.575,-9.802,0.177,-0.001,-0.021,-1178,-421,-1338
00:11:54.300,37.42679214,-122.17304230,31.400,-2700394.250,-4292631.000,3855134.000,0.366,0.536,-9.682,0.180,-0.003,-0.021,-1187,-416,-1323
00:11:54.300,37.42679214,-122.17304230,31.400,-2700394.250,-4292631.000,3855134.000,0.445,0.555,-9.833,0.175,-0.003,-0.019,-1190,-400,-1326
00:11:54.400,37.42679214,-122.17304230,31.500,-2700394.250,-4292631.000,3855134.250,0.393,0.536,-9.713,0.177,-0.001,-0.020,-1195,-418,-1341
00:11:54.400,37.42679214,-122.17304230,31.500,-2700394.250,-4292631.000,3855134.250,0.354,0.524,-9.742,0.178,-0.001,-0.018,-1181,-418,-1336
00:11:54.500,37.42679214,-122.17304230,31.500,-2700394.250,-4292631.000,3855134.250,0.335,0.524,-9.742,0.176,-0.001,-0.023,-1166,-407,-1326
00:11:54.500,37.42679214,-122.17304230,31.500,-2700394.250,-4292631.000,3855134.250,0.417,0.517,-9.708,0.174,-0.000,-0.022,-1182,-418,-1328
00:11:54.600,37.42679596,-122.17304230,31.500,-2700394.250,-4292631.000,3855134.250,0.409,0.515,-9.804,0.174,0.000,-0.022,-1178,-410,-1348
00:11:54.600,37.42679596,-122.17304230,31.500,-2700394.250,-4292631.000,3855134.250,0.441,0.498,-9.744,0.174,-0.000,-0.019,-1181,-412,-1343
00:11:54.700,37.42679596,-122.17304230,31.600,-2700394.250,-4292631.000,3855134.250,0.407,0.539,-9.776,0.177,-0.002,-0.019,-1178,-412,-1316
00:11:54.700,37.42679596,-122.17304230,31.600,-2700394.250,-4292631.000,3855134.250,0.393,0.488,-9.740,0.178,-0.000,-0.021,-1178,-423,-1336
00:11:54.800,37.42679596,-122.17304230,31.600,-2700394.250,-4292631.000,3855134.250,0.498,0.486,-9.768,0.181,0.001,-0.020,-1181,-415,-1331
00:11:54.800,37.42679596,-122.17304230,31.600,-2700394.250,-4292631.000,3855134.250,0.330,0.546,-9.737,0.175,0.003,-0.019,-1187,-410,-1336
00:11:54.900,37.42679596,-122.17304230,31.600,-2700394.250,-4292631.000,3855134.250,0.357,0.555,-9.792,0.177,0.003,-0.023,-1178,-418,-1338
00:11:54.900,37.42679596,-122.17304230,31.600,-2700394.250,-4292631.000,3855134.250,0.460,0.555,-9.706,0.174,-0.001,-0.021,-1181,-412,-1338
00:11:55.000,37.42679596,-122.17304230,31.700,-2700394.250,-4292631.500,3855134.250,0.397,0.510,-9.773,0.175,-0.003,-0.020,-1192,-415,-1343
00:11:55.000,37.42679596,-122.17304230,31.700,-2700394.250,-4292631.500,3855134.250,0.395,0.558,-9.692,0.177,-0.005,-0.022,-1181,-415,-1338
00:11:55.100,37.42679596,-122.17304230,31.700,-2700394.250,-4292631.500,3855134.250,0.383,0.505,-9.699,0.177,0.000,-0.019,-1190,-410,-1331
00:11:55.100,37.42679596,-122.17304230,31.700,-2700394.250,-4292631.500,3855134.250,0.400,0.532,-9.735,0.179,0.001,-0.019,-1185,-410,-1336
00:11:55.200,37.42679596,-122.17304230,31.800,-2700394.250,-4292631.500,3855134.500,0.364,0.558,-9.742,0.177,-0.003,-0.019,-1178,-418,-1346
00:11:55.200,37.42679596,-122.17304230,31.800,-2700394.250,-4292631.500,3855134.500,0.393,0.532,-9.809,0.182,-0.003,-0.018,-1187,-421,-1338
00:11:55.300,37.42679596,-122.17304230,31.800,-2700394.250,-4292631.500,3855134.500,0.352,0.527,-9.811,0.178,-0.001,-0.020,-1182,-412,-1341
00:11:55.300,37.42679596,-122.17304230,31.800,-2700394.250,-4292631.500,3855134.500,0.388,0.541,-9.780,0.177,-0.001,-0.020,-1187,-416,-1341
00:11:55.400,37.42679596,-122.17304230,31.800,-2700394.250,-4292631.500,3855134.500,0.342,0.541,-9.675,0.178,-0.002,-0.023,-1182,-415,-1336
00:11:55.400,37.42679596,-122.17304230,31.800,-2700394.250,-4292631.500,3855134.500,0.433,0.510,-9.725,0.178,0.000,-0.021,-1187,-412,-1328
00:11:55.500,37.42679596,-122.17304230,31.800,-2700394.250,-4292631.500,3855134.500,0.409,0.532,-9.742,0.176,0.002,-0.023,-1178,-416,-1338
00:11:55.500,37.42679596,-122.17304230,31.800,-2700394.250,-4292631.500,3855134.500,0.409,0.539,-9.737,0.178,0.001,-0.019,-1190,-415,-1331
00:11:55.600,37.42679596,-122.17304230,31.900,-2700394.500,-4292631.500,3855134.500,0.376,0.601,-9.737,0.176,-0.002,-0.020,-1181,-416,-1341
00:11:55.600,37.42679596,-122.17304230,31.900,-2700394.500,-4292631.500,3855134.500,0.409,0.536,-9.754,0.178,-0.002,-0.020,-1178,-418,-1346
00:11:55.700,37.42679596,-122.17304230,31.900,-2700394.250,-4292631.500,3855134.500,0.421,0.527,-9.764,0.176,-0.001,-0.021,-1176,-412,-1351
00:11:55.700,37.42679596,-122.17304230,31.900,-2700394.250,-4292631.500,3855134.500,0.385,0.551,-9.728,0.179,0.000,-0.021,-1190,-426,-1336
00:11:55.800,37.42679596,-122.17304230,31.900,-2700394.250,-4292631.500,3855134.500,0.393,0.543,-9.742,0.175,-0.001,-0.020,-1187,-412,-1346
00:11:55.800,37.42679596,-122.17304230,31.900,-2700394.250,-4292631.500,3855134.500,0.393,0.536,-9.766,0.178,-0.003,-0.020,-1181,-410,-1338
00:11:55.900,37.42679596,-122.17304230,31.900,-2700394.250,-4292631.500,3855134.500,0.393,0.563,-9.752,0.180,-0.000,-0.020,-1185,-418,-1341
00:11:55.900,37.42679596,-122.17304230,31.900,-2700394.250,-4292631.500,3855134.500,0.388,0.577,-9.766,0.176,-0.001,-0.020,-1185,-418,-1333
00:11:56.000,37.42679596,-122.17304230,32.000,-2700394.500,-4292631.500,3855134.750,0.445,0.539,-9.785,0.177,-0.001,-0.022,-1192,-415,-1336
00:11:56.000,37.42679596,-122.17304230,32.000,-2700394.500,-4292631.500,3855134.750,0.378,0.527,-9.773,0.176,-0.005,-0.024,-1181,-415,-1338
00:11:56.100,37.42679596,-122.17304230,32.000,-2700394.500,-4292631.500,3855134.750,0.340,0.491,-9.740,0.175,-0.001,-0.018,-1182,-421,-1338
00:11:56.100,37.42679596,-122.17304230,32.000,-2700394.500,-4292631.500,3855134.750,0.472,0.558,-9.749,0.177,-0.003,-0.021,-1190,-416,-1338
00:11:56.200,37.42679596,-122.17304230,32.100,-2700394.500,-4292631.500,3855134.750,0.388,0.520,-9.773,0.176,-0.000,-0.020,-1190,-416,-1336
00:11:56.200,37.42679596,-122.17304230,32.100,-2700394.500,-4292631.500,3855134.750,0.397,0.493,-9.761,0.176,0.002,-0.020,-1182,-418,-1341
00:11:56.300,37.42679596,-122.17304230,32.100,-2700394.500,-4292631.500,3855134.750,0.393,0.553,-9.752,0.174,0.004,-0.018,-1182,-416,-1343
00:11:56.300,37.42679596,-122.17304230,32.100,-2700394.500,-4292631.500,3855134.750,0.464,0.524,-9.852,0.176,-0.001,-0.019,-1185,-412,-1338
00:11:56.400,37.42679596,-122.17304230,32.100,-2700394.500,-4292631.500,3855134.750,0.357,0.548,-9.747,0.175,-0.002,-0.022,-1185,-412,-1341
00:11:56.400,37.42679596,-122.17304230,32.100,-2700394.500,-4292631.500,3855134.750,0.378,0.543,-9.826,0.178,-0.003,-0.019,-1182,-415,-1338
00:11:56.500,37.42679596,-122.17304230,32.100,-2700394.500,-4292631.500,3855134.750,0.347,0.453,-9.718,0.178,-0.003,-0.021,-1185,-415,-1338
00:11:56.500,37.42679596,-122.17304230,32.100,-2700394.500,-4292631.500,3855134.750,0.455,0.476,-9.826,0.179,-0.002,-0.020,-1190,-421,-1343
00:11:56.600,37.42679596,-122.17304230,32.200,-2700394.500,-4292631.500,3855134.750,0.385,0.546,-9.771,0.180,0.000,-0.020,-1190,-418,-1343
00:11:56.600,37.42679596,-122.17304230,32.200,-2700394.500,-4292631.500,3855134.750,0.395,0.505,-9.792,0.175,-0.000,-0.020,-1182,-415,-1336
00:11:56.700,37.42679596,-122.17304230,32.200,-2700394.500,-4292631.500,3855134.750,0.393,0.520,-9.742,0.179,0.001,-0.021,-1190,-423,-1343
00:11:56.700,37.42679596,-122.17304230,32.200,-2700394.500,-4292631.500,3855134.750,0.433,0.539,-9.780,0.180,-0.002,-0.019,-1190,-421,-1338
00:11:56.800,37.42679596,-122.17304230,32.200,-2700394.500,-4292631.500,3855134.750,0.400,0.539,-9.797,0.177,0.002,-0.020,-1192,-418,-1341
00:11:56.800,37.42679596,-122.17304230,32.200,-2700394.500,-4292631.500,3855134.750,0.431,0.532,-9.723,0.176,-0.004,-0.019,-1185,-415,-1346
00:11:56.900,37.42679596,-122.17304230,32.200,-2700394.500,-4292631.500,3855134.750,0.378,0.555,-9.766,0.178,0.000,-0.020,-1190,-412,-1336
00:11:56.900,37.42679596,-122.17304230,32.200,-2700394.500,-4292631.500,3855134.750,0.417,0.543,-9.776,0.177,-0.002,-0.019,-1181,-428,-1341
00:11:57.000,37.42679596,-122.17304230,32.300,-2700394.500,-4292631.500,3855135.000,0.376,0.527,-9.742,0.177,-0.000,-0.021,-1181,-415,-1326
00:11:57.000,37.42679596,-122.17304230,32.300,-2700394.500,-4292631.500,3855135.000,0.414,0.565,-9.799,0.176,0.001,-0.021,-1192,-416,-1336
00:11:57.100,37.42679596,-122.17304230,32.300,-2700394.500,-4292631.500,3855135.000,0.431,0.555,-9.785,0.175,-0.001,-0.017,-1185,-405,-1328
00:11:57.100,37.42679596,-122.17304230,32.300,-2700394.500,-4292631.500,3855135.000,0.345,0.572,-9.653,0.177,-0.002,-0.023,-1185,-418,-1348
00:11:57.200,37.42679596,-122.17304230,32.300,-2700394.500,-4292631.500,3855135.000,0.424,0.486,-9.732,0.174,-0.003,-0.021,-1166,-412,-1336
00:11:57.200,37.42679596,-122.17304230,32.300,-2700394.500,-4292631.500,3855135.000,0.453,0.546,-9.867,0.178,0.000,-0.020,-1176,-416,-1346
00:11:57.300,37.42679596,-122.17304230,32.300,-2700394.500,-4292631.500,3855135.000,0.409,0.527,-9.776,0.177,-0.001,-0.020,-1178,-400,-1336
00:11:57.300,37.42679596,-122.17304230,32.300,-2700394.500,-4292631.500,3855135.000,0.362,0.491,-9.725,0.178,0.000,-0.021,-1178,-416,-1341
00:11:57.400,37.42679596,-122.17304230,32.400,-2700394.500,-4292631.500,3855135.000,0.412,0.493,-9.759,0.177,-0.001,-0.020,-1181,-416,-1338
00:11:57.400,37.42679596,-122.17304230,32.400,-2700394.500,-4292631.500,3855135.000,0.366,0.486,-9.761,0.178,-0.002,-0.021,-1182,-428,-1336
00:11:57.500,37.42679596,-122.17304230,32.400,-2700394.500,-4292631.500,3855135.000,0.376,0.488,-9.759,0.175,0.001,-0.021,-1185,-418,-1343
00:11:57.500,37.42679596,-122.17304230,32.400,-2700394.500,-4292631.500,3855135.000,0.393,0.579,-9.668,0.180,-0.000,-0.022,-1178,-410,-1336
00:11:57.600,37.42679596,-122.17304230,32.400,-2700394.500,-4292631.500,3855135.000,0.407,0.548,-9.752,0.179,0.000,-0.020,-1185,-421,-1346
00:11:57.600,37.42679596,-122.17304230,32.400,-2700394.500,-4292631.500,3855135.000,0.354,0.512,-9.778,0.176,-0.001,-0.022,-1176,-407,-1338
00:11:57.700,37.42679596,-122.17304230,32.400,-2700394.500,-4292631.500,3855135.000,0.417,0.599,-9.778,0.178,-0.002,-0.018,-1181,-407,-1343
00:11:57.700,37.42679596,-122.17304230,32.400,-2700394.500,-4292631.500,3855135.000,0.445,0.522,-9.747,0.177,-0.007,-0.021,-1185,-421,-1338
00:11:57.800,37.42679596,-122.17304230,32.500,-2700394.500,-4292631.500,3855135.000,0.414,0.524,-9.766,0.175,0.000,-0.023,-1185,-418,-1351
00:11:57.800,37.42679596,-122.17304230,32.500,-2700394.500,-4292631.500,3855135.000,0.345,0.560,-9.804,0.177,-0.001,-0.019,-1187,-412,-1348
00:11:57.900,37.42679596,-122.17304230,32.500,-2700394.500,-4292631.500,3855135.000,0.457,0.534,-9.728,0.176,-0.002,-0.020,-1173,-421,-1338
00:11:57.900,37.42679596,-122.17304230,32.500,-2700394.500,-4292631.500,3855135.000,0.445,0.582,-9.711,0.179,-0.001,-0.020,-1181,-426,-1346
00:11:58.000,37.42679977,-122.17304230,32.500,-2700394.500,-4292631.500,3855135.250,0.395,0.565,-9.718,0.178,0.001,-0.020,-1178,-397,-1343
00:11:58.000,37.42679977,-122.17304230,32.500,-2700394.500,-4292631.500,3855135.250,0.405,0.522,-9.742,0.177,0.002,-0.017,-1171,-407,-1331
00:11:58.100,37.42679977,-122.17304230,32.500,-2700394.500,-4292631.500,3855135.250,0.445,0.536,-9.816,0.178,0.002,-0.019,-1182,-416,-1333
00:11:58.100,37.42679977,-122.17304230,32.500,-2700394.500,-4292631.500,3855135.250,0.421,0.553,-9.761,0.179,-0.002,-0.023,-1173,-421,-1348
00:11:58.200,37.42679977,-122.17304230,32.600,-2700394.500,-4292631.500,3855135.250,0.405,0.503,-9.761,0.175,-0.004,-0.019,-1181,-423,-1348
00:11:58.200,37.42679977,-122.17304230,32.600,-2700394.500,-4292631.500,3855135.250,0.362,0.534,-9.828,0.180,-0.002,-0.018,-1182,-405,-1336
00:11:58.300,37.42679977,-122.17304230,32.600,-2700394.500,-4292631.500,3855135.250,0.381,0.572,-9.716,0.178,-0.003,-0.020,-1197,-421,-1343
00:11:58.400,37.42679977,-122.17304230,32.600,-2700394.500,-4292631.500,3855135.250,0.412,0.558,-9.811,0.177,-0.004,-0.017,-1178,-410,-1331
00:11:58.400,37.42679977,-122.17304230,32.600,-2700394.500,-4292631.500,3855135.250,0.352,0.469,-9.771,0.174,0.000,-0.022,-1185,-407,-1326
00:11:58.400,37.42679977,-122.17304230,32.600,-2700394.500,-4292631.500,3855135.250,0.371,0.503,-9.685,0.175,0.004,-0.017,-1171,-407,-1356
00:11:58.500,37.42679977,-122.17304230,32.600,-2700394.500,-4292631.500,3855135.250,0.462,0.500,-9.783,0.173,0.003,-0.022,-1178,-423,-1331
00:11:58.500,37.42679977,-122.17304230,32.600,-2700394.500,-4292631.500,3855135.250,0.376,0.567,-9.776,0.178,-0.003,-0.017,-1171,-415,-1333
00:11:58.600,37.42679977,-122.17304230,32.600,-2700394.500,-4292631.500,3855135.250,0.390,0.520,-9.728,0.178,-0.004,-0.020,-1181,-410,-1323
00:11:58.600,37.42679977,-122.17304230,32.600,-2700394.500,-4292631.500,3855135.250,0.424,0.563,-9.728,0.179,0.001,-0.021,-1187,-410,-1336
00:11:58.700,37.42679977,-122.17304230,32.700,-2700394.500,-4292632.000,3855135.250,0.393,0.555,-9.850,0.178,-0.001,-0.020,-1181,-412,-1343
00:11:58.700,37.42679977,-122.17304230,32.700,-2700394.500,-4292632.000,3855135.250,0.409,0.522,-9.735,0.174,0.002,-0.023,-1185,-416,-1331
00:11:58.800,37.42679977,-122.17304230,32.700,-2700394.500,-4292632.000,3855135.250,0.393,0.505,-9.807,0.176,-0.004,-0.020,-1182,-426,-1338
00:11:58.900,37.42679977,-122.17304230,32.700,-2700394.500,-4292632.000,3855135.250,0.385,0.520,-9.706,0.177,-0.002,-0.021,-1176,-421,-1336
00:11:58.900,37.42679977,-122.17304230,32.700,-2700394.500,-4292632.000,3855135.250,0.378,0.505,-9.771,0.177,-0.001,-0.023,-1176,-416,-1331
00:11:58.900,37.42679977,-122.17304230,32.700,-2700394.500,-4292632.000,3855135.250,0.400,0.508,-9.735,0.178,-0.003,-0.023,-1185,-416,-1336
00:11:59.000,37.42679977,-122.17304230,32.700,-2700394.500,-4292631.500,3855135.250,0.335,0.563,-9.692,0.179,-0.002,-0.020,-1173,-418,-1338
00:11:59.000,37.42679977,-122.17304230,32.700,-2700394.500,-4292631.500,3855135.250,0.364,0.520,-9.742,0.177,-0.003,-0.020,-1176,-418,-1346
00:11:59.100,37.42679977,-122.17304230,32.800,-2700394.500,-4292632.000,3855135.500,0.369,0.515,-9.795,0.179,-0.001,-0.018,-1178,-418,-1331
00:11:59.100,37.42679977,-122.17304230,32.800,-2700394.500,-4292632.000,3855135.500,0.328,0.582,-9.744,0.179,0.000,-0.019,-1185,-410,-1338
00:11:59.200,37.42679977,-122.17304230,32.800,-2700394.500,-4292632.000,3855135.500,0.359,0.486,-9.778,0.181,0.002,-0.022,-1185,-418,-1333
00:11:59.200,37.42679977,-122.17304230,32.800,-2700394.500,-4292632.000,3855135.500,0.397,0.481,-9.833,0.177,0.001,-0.019,-1182,-428,-1336
00:11:59.300,37.42679977,-122.17304230,32.800,-2700394.500,-4292632.000,3855135.500,0.455,0.510,-9.728,0.179,0.001,-0.019,-1192,-426,-1333
00:11:59.400,37.42679977,-122.17304230,32.800,-2700394.500,-4292632.000,3855135.500,0.438,0.534,-9.766,0.178,0.001,-0.020,-1187,-415,-1351
00:11:59.400,37.42679977,-122.17304230,32.800,-2700394.500,-4292632.000,3855135.500,0.412,0.553,-9.747,0.177,0.000,-0.023,-1181,-415,-1343
00:11:59.500,37.42679977,-122.17304230,32.800,-2700394.500,-4292632.000,3855135.500,0.366,0.563,-9.713,0.181,-0.002,-0.020,-1176,-416,-1346
00:11:59.500,37.42679977,-122.17304230,32.800,-2700394.500,-4292632.000,3855135.500,0.393,0.522,-9.833,0.177,-0.001,-0.022,-1168,-418,-1338
00:11:59.500,37.42679977,-122.17304230,32.800,-2700394.500,-4292632.000,3855135.500,0.405,0.548,-9.677,0.179,0.000,-0.020,-1182,-418,-1331
00:11:59.600,37.42679977,-122.17304230,32.900,-2700394.500,-4292632.000,3855135.500,0.385,0.579,-9.816,0.175,0.000,-0.021,-1190,-412,-1341
00:11:59.600,37.42679977,-122.17304230,32.900,-2700394.500,-4292632.000,3855135.500,0.359,0.570,-9.814,0.176,0.001,-0.020,-1176,-415,-1323
00:11:59.700,37.42679977,-122.17304230,32.900,-2700394.500,-4292632.000,3855135.500,0.378,0.534,-9.752,0.177,0.001,-0.021,-1192,-412,-1343
00:11:59.800,37.42679977,-122.17304230,32.900,-2700394.500,-4292632.000,3855135.500,0.393,0.524,-9.790,0.181,-0.001,-0.018,-1178,-410,-1338
00:11:59.800,37.42679977,-122.17304230,32.900,-2700394.500,-4292632.000,3855135.500,0.390,0.553,-9.720,0.177,-0.003,-0.019,-1176,-412,-1331
00:11:59.900,37.42679977,-122.17304230,32.900,-2700394.500,-4292632.000,3855135.500,0.431,0.570,-9.787,0.176,-0.003,-0.019,-1181,-407,-1348
00:11:59.900,37.42679977,-122.17304230,32.900,-2700394.500,-4292632.000,3855135.500,0.417,0.560,-9.742,0.175,-0.006,-0.024,-1182,-416,-1353
00:11:59.900,37.42679977,-122.17304230,32.900,-2700394.500,-4292632.000,3855135.500,0.412,0.515,-9.799,0.176,-0.004,-0.020,-1181,-410,-1333
00:12:00.000,37.42679977,-122.17304230,33.000,-2700394.500,-4292632.000,3855135.500,0.457,0.515,-9.797,0.175,0.000,-0.023,-1187,-405,-1338
00:12:00.000,37.42679977,-122.17304230,33.000,-2700394.500,-4292632.000,3855135.500,0.388,0.524,-9.737,0.178,-0.002,-0.023,-1185,-428,-1348
00:12:00.100,37.42679977,-122.17304230,32.900,-2700394.500,-4292632.000,3855135.500,0.450,0.553,-9.749,0.176,0.001,-0.019,-1178,-410,-1336
00:12:00.200,37.42679977,-122.17304230,32.900,-2700394.500,-4292632.000,3855135.500,0.378,0.579,-9.809,0.175,-0.003,-0.017,-1197,-412,-1328
00:12:00.200,37.42679977,-122.17304230,33.000,-2700394.500,-4292632.000,3855135.500,0.402,0.532,-9.821,0.175,-0.002,-0.021,-1187,-418,-1328
00:12:00.300,37.42679977,-122.17304230,33.000,-2700394.500,-4292632.000,3855135.500,0.393,0.546,-9.694,0.175,-0.004,-0.018,-1176,-407,-1333
00:12:00.300,37.42679977,-122.17304230,33.000,-2700394.500,-4292632.000,3855135.500,0.381,0.563,-9.742,0.175,-0.001,-0.023,-1187,-407,-1348
00:12:00.400,37.42679977,-122.17304230,33.000,-2700394.500,-4292632.000,3855135.500,0.381,0.560,-9.716,0.178,0.000,-0.019,-1176,-415,-1341
00:12:00.400,37.42679977,-122.17304230,33.000,-2700394.500,-4292632.000,3855135.500,0.402,0.512,-9.862,0.176,-0.003,-0.022,-1163,-412,-1328
00:12:00.500,37.42679977,-122.17304230,33.000,-2700394.500,-4292632.000,3855135.500,0.412,0.532,-9.795,0.179,-0.001,-0.022,-1190,-407,-1341
00:12:00.500,37.42679977,-122.17304230,33.000,-2700394.500,-4292632.000,3855135.500,0.390,0.498,-9.737,0.178,-0.001,-0.020,-1182,-428,-1353
00:12:00.500,37.42679977,-122.17304230,33.000,-2700394.500,-4292632.000,3855135.500,0.395,0.539,-9.747,0.180,-0.002,-0.020,-1195,-407,-1341
00:12:00.600,37.42679977,-122.17304230,33.000,-2700394.500,-4292632.000,3855135.500,0.493,0.524,-9.778,0.178,0.003,-0.024,-1168,-407,-1333
00:12:00.700,37.42679977,-122.17304230,33.000,-2700394.500,-4292632.000,3855135.750,0.383,0.496,-9.756,0.178,-0.001,-0.019,-1182,-410,-1348
00:12:00.700,37.42679977,-122.17304230,33.000,-2700394.500,-4292632.000,3855135.750,0.429,0.520,-9.730,0.177,0.001,-0.020,-1190,-421,-1341
00:12:00.800,37.42679977,-122.17304230,33.000,-2700394.500,-4292632.000,3855135.750,0.376,0.529,-9.804,0.176,0.001,-0.019,-1181,-416,-1346
00:12:00.800,37.42679977,-122.17304230,33.100,-2700394.750,-4292632.000,3855135.750,0.362,0.599,-9.708,0.180,-0.001,-0.019,-1171,-415,-1333
00:12:00.900,37.42679977,-122.17304230,33.100,-2700394.750,-4292632.000,3855135.750,0.395,0.515,-9.744,0.175,-0.001,-0.019,-1185,-416,-1338
00:12:00.900,37.42679977,-122.17304230,33.100,-2700394.750,-4292632.000,3855135.750,0.366,0.536,-9.804,0.178,0.002,-0.021,-1185,-410,-1351
00:12:00.900,37.42679977,-122.17304230,33.100,-2700394.750,-4292632.000,3855135.750,0.352,0.532,-9.799,0.178,-0.005,-0.019,-1182,-426,-1358
00:12:01.000,37.42679977,-122.17304230,33.100,-2700394.750,-4292632.000,3855135.750,0.409,0.563,-9.826,0.179,0.000,-0.020,-1190,-415,-1353
00:12:01.100,37.42679977,-122.17304230,33.100,-2700394.500,-4292632.000,3855135.750,0.373,0.529,-9.764,0.176,0.001,-0.022,-1190,-426,-1333
00:12:01.100,37.42679977,-122.17304230,33.100,-2700394.500,-4292632.000,3855135.750,0.397,0.484,-9.742,0.174,-0.001,-0.021,-1173,-412,-1336
00:12:01.200,37.42679977,-122.17304230,33.100,-2700394.500,-4292632.000,3855135.750,0.448,0.505,-9.799,0.177,-0.005,-0.021,-1187,-415,-1338
00:12:01.200,37.42679977,-122.17304230,33.100,-2700394.500,-4292632.000,3855135.750,0.393,0.515,-9.730,0.176,-0.004,-0.025,-1178,-402,-1338
00:12:01.200,37.42679977,-122.17304230,33.100,-2700394.500,-4292632.000,3855135.750,0.397,0.524,-9.783,0.179,-0.001,-0.023,-1178,-407,-1321
00:12:01.300,37.42679977,-122.17304230,33.100,-2700394.500,-4292632.000,3855135.750,0.443,0.517,-9.771,0.178,-0.003,-0.024,-1187,-431,-1346
00:12:01.400,37.42679977,-122.17304230,33.100,-2700394.500,-4292632.000,3855135.750,0.417,0.565,-9.752,0.175,0.001,-0.020,-1178,-418,-1333
00:12:01.400,37.42679977,-122.17304230,33.100,-2700394.500,-4292632.000,3855135.750,0.376,0.510,-9.718,0.180,-0.002,-0.020,-1187,-415,-1356
00:12:01.500,37.42679977,-122.17304230,33.100,-2700394.500,-4292632.000,3855135.750,0.409,0.539,-9.735,0.178,-0.002,-0.022,-1182,-412,-1326
00:12:01.500,37.42679977,-122.17304230,33.200,-2700394.750,-4292632.000,3855135.750,0.393,0.500,-9.685,0.175,0.001,-0.020,-1166,-415,-1321
00:12:01.600,37.42679977,-122.17304230,33.200,-2700394.750,-4292632.000,3855135.750,0.371,0.565,-9.708,0.176,-0.000,-0.022,-1181,-402,-1343
00:12:01.600,37.42679977,-122.17304230,33.200,-2700394.750,-4292632.000,3855135.750,0.438,0.496,-9.764,0.177,-0.001,-0.018,-1181,-415,-1338
00:12:01.700,37.42679977,-122.17304230,33.200,-2700394.750,-4292632.000,3855135.750,0.409,0.553,-9.730,0.178,-0.001,-0.020,-1181,-412,-1348
00:12:01.700,37.42679977,-122.17304230,33.200,-2700394.750,-4292632.000,3855135.750,0.395,0.500,-9.723,0.179,0.004,-0.021,-1197,-431,-1341
00:12:01.800,37.42679977,-122.17304230,33.200,-2700394.750,-4292632.000,3855135.750,0.429,0.563,-9.828,0.178,0.000,-0.017,-1176,-412,-1343
00:12:01.800,37.42679977,-122.17304230,33.200,-2700394.750,-4292632.000,3855135.750,0.433,0.565,-9.864,0.178,0.003,-0.020,-1182,-412,-1341
00:12:01.900,37.42679977,-122.17304230,33.200,-2700394.750,-4292632.000,3855135.750,0.388,0.510,-9.754,0.174,-0.001,-0.021,-1182,-405,-1341
00:12:01.900,37.42679977,-122.17304230,33.200,-2700394.750,-4292632.000,3855135.750,0.376,0.505,-9.737,0.173,-0.002,-0.019,-1187,-418,-1331
00:12:01.900,37.42679977,-122.17304230,33.200,-2700394.750,-4292632.000,3855135.750,0.362,0.565,-9.833,0.179,-0.001,-0.019,-1187,-423,-1338
00:12:02.000,37.42679977,-122.17304230,33.200,-2700394.750,-4292632.000,3855135.750,0.347,0.512,-9.835,0.177,0.001,-0.022,-1185,-416,-1343
00:12:02.000,37.42679977,-122.17304230,33.200,-2700394.750,-4292632.000,3855135.750,0.412,0.534,-9.768,0.179,-0.001,-0.020,-1185,-407,-1338
00:12:02.100,37.42679977,-122.17304230,33.200,-2700394.750,-4292632.000,3855135.750,0.424,0.522,-9.776,0.175,0.001,-0.022,-1173,-415,-1336
00:12:02.200,37.42679977,-122.17304230,33.200,-2700394.750,-4292632.000,3855135.750,0.385,0.510,-9.732,0.180,-0.000,-0.021,-1187,-426,-1333
00:12:02.200,37.42679977,-122.17304230,33.300,-2700394.750,-4292632.000,3855136.000,0.383,0.529,-9.735,0.176,-0.002,-0.021,-1192,-421,-1338
00:12:02.300,37.42679977,-122.17304230,33.300,-2700394.750,-4292632.000,3855136.000,0.366,0.555,-9.785,0.176,0.002,-0.020,-1187,-416,-1348
00:12:02.300,37.42679977,-122.17304230,33.300,-2700394.750,-4292632.000,3855136.000,0.381,0.508,-9.773,0.172,0.000,-0.018,-1182,-407,-1338
00:12:02.400,37.42679977,-122.17304230,33.300,-2700394.750,-4292632.000,3855136.000,0.429,0.512,-9.756,0.177,0.002,-0.022,-1187,-418,-1338
00:12:02.400,37.42679977,-122.17304230,33.300,-2700394.750,-4292632.000,3855136.000,0.340,0.563,-9.773,0.176,-0.004,-0.021,-1178,-421,-1336
00:12:02.500,37.42679977,-122.17304230,33.300,-2700394.750,-4292632.000,3855136.000,0.352,0.553,-9.737,0.176,-0.005,-0.017,-1190,-421,-1333
00:12:02.500,37.42679977,-122.17304230,33.300,-2700394.750,-4292632.000,3855136.000,0.431,0.584,-9.732,0.175,-0.004,-0.019,-1178,-405,-1336
00:12:02.600,37.42679977,-122.17304230,33.300,-2700394.750,-4292632.000,3855136.000,0.388,0.500,-9.752,0.177,-0.000,-0.020,-1187,-418,-1328
00:12:02.600,37.42679977,-122.17304230,33.300,-2700394.750,-4292632.000,3855136.000,0.405,0.515,-9.718,0.173,0.005,-0.020,-1178,-410,-1318
00:12:02.700,37.42680359,-122.17304230,33.300,-2700394.750,-4292632.000,3855136.000,0.419,0.570,-9.701,0.175,-0.001,-0.022,-1176,-416,-1338
00:12:02.700,37.42680359,-122.17304230,33.400,-2700394.750,-4292632.000,3855136.000,0.373,0.532,-9.744,0.179,0.004,-0.022,-1171,-410,-1341
00:12:02.800,37.42680359,-122.17304230,33.400,-2700394.750,-4292632.000,3855136.000,0.429,0.543,-9.759,0.176,-0.003,-0.022,-1182,-421,-1346
00:12:02.800,37.42680359,-122.17304230,33.400,-2700394.750,-4292632.000,3855136.000,0.421,0.527,-9.795,0.177,0.005,-0.019,-1178,-416,-1336
00:12:02.900,37.42680359,-122.17304230,33.400,-2700394.750,-4292632.000,3855136.000,0.359,0.524,-9.768,0.174,-0.004,-0.019,-1187,-405,-1341
00:12:02.900,37.42680359,-122.17304230,33.400,-2700394.750,-4292632.000,3855136.000,0.460,0.555,-9.742,0.175,-0.002,-0.019,-1190,-421,-1346
00:12:02.900,37.42680359,-122.17304230,33.400,-2700394.750,-4292632.000,3855136.000,0.385,0.512,-9.732,0.178,-0.003,-0.021,-1187,-418,-1348
00:12:03.000,37.42680359,-122.17304230,33.400,-2700394.750,-4292632.000,3855136.000,0.345,0.500,-9.704,0.175,-0.002,-0.020,-1163,-410,-1326
00:12:03.100,37.42680359,-122.17304230,33.400,-2700394.750,-4292632.000,3855136.000,0.393,0.484,-9.761,0.175,0.000,-0.021,-1182,-405,-1336
00:12:03.100,37.42680359,-122.17304230,33.400,-2700394.750,-4292632.000,3855136.000,0.429,0.488,-9.747,0.176,0.002,-0.019,-1190,-418,-1336
00:12:03.200,37.42680359,-122.17304230,33.400,-2700394.750,-4292632.000,3855136.000,0.409,0.543,-9.792,0.175,-0.006,-0.021,-1178,-418,-1348
00:12:03.200,37.42680359,-122.17304230,33.400,-2700394.750,-4292632.000,3855136.000,0.383,0.572,-9.768,0.177,-0.005,-0.021,-1173,-407,-1336
00:12:03.200,37.42680359,-122.17304230,33.400,-2700394.750,-4292632.000,3855136.000,0.369,0.500,-9.711,0.175,0.001,-0.021,-1176,-416,-1333
00:12:03.300,37.42680359,-122.17304230,33.400,-2700394.750,-4292632.000,3855136.000,0.424,0.505,-9.656,0.175,-0.001,-0.022,-1178,-423,-1331
00:12:03.400,37.42680359,-122.17304230,33.400,-2700394.750,-4292632.000,3855136.000,0.373,0.560,-9.799,0.174,0.002,-0.021,-1182,-415,-1341
00:12:03.400,37.42680359,-122.17304230,33.500,-2700394.750,-4292632.000,3855136.000,0.381,0.467,-9.843,0.181,-0.001,-0.021,-1178,-421,-1333
00:12:03.500,37.42680359,-122.17304230,33.500,-2700394.750,-4292632.000,3855136.000,0.405,0.524,-9.766,0.177,-0.001,-0.023,-1176,-415,-1336
00:12:03.500,37.42680359,-122.17304230,33.500,-2700394.750,-4292632.000,3855136.000,0.393,0.496,-9.809,0.178,0.001,-0.022,-1185,-418,-1338
00:12:03.600,37.42680359,-122.17304230,33.500,-2700394.750,-4292632.000,3855136.000,0.455,0.510,-9.804,0.179,-0.001,-0.020,-1182,-421,-1333
00:12:03.600,37.42680359,-122.17304230,33.500,-2700394.750,-4292632.000,3855136.000,0.385,0.555,-9.752,0.179,0.000,-0.020,-1197,-412,-1326
00:12:03.700,37.42680359,-122.17304230,33.500,-2700394.750,-4292632.000,3855136.000,0.496,0.541,-9.720,0.174,-0.004,-0.019,-1181,-418,-1331
00:12:03.700,37.42680359,-122.17304230,33.500,-2700394.750,-4292632.000,3855136.000,0.417,0.539,-9.761,0.178,-0.003,-0.021,-1166,-423,-1343
00:12:03.800,37.42680359,-122.17304230,33.600,-2700394.750,-4292632.000,3855136.250,0.419,0.536,-9.718,0.176,-0.001,-0.018,-1182,-421,-1343
00:12:03.800,37.42680359,-122.17304230,33.600,-2700394.750,-4292632.000,3855136.250,0.359,0.575,-9.752,0.177,-0.002,-0.019,-1178,-402,-1336
00:12:03.900,37.42680359,-122.17304230,33.500,-2700394.750,-4292632.000,3855136.250,0.388,0.491,-9.773,0.176,0.000,-0.023,-1173,-405,-1328
00:12:03.900,37.42680359,-122.17304230,33.500,-2700394.750,-4292632.000,3855136.250,0.359,0.522,-9.737,0.179,-0.001,-0.023,-1173,-410,-1333
00:12:03.900,37.42680359,-122.17304230,33.500,-2700394.750,-4292632.000,3855136.250,0.340,0.512,-9.708,0.177,-0.003,-0.020,-1173,-416,-1343
00:12:04.000,37.42680359,-122.17304230,33.600,-2700394.750,-4292632.000,3855136.250,0.359,0.532,-9.749,0.175,-0.001,-0.018,-1182,-415,-1338
00:12:04.100,37.42680359,-122.17304230,33.600,-2700394.750,-4292632.000,3855136.250,0.457,0.524,-9.737,0.176,-0.003,-0.021,-1185,-421,-1348
00:12:04.100,37.42680359,-122.17304230,33.600,-2700394.750,-4292632.000,3855136.250,0.376,0.555,-9.780,0.179,0.000,-0.021,-1185,-416,-1343
00:12:04.200,37.42680359,-122.17304230,33.600,-2700394.750,-4292632.000,3855136.250,0.457,0.508,-9.725,0.177,0.000,-0.023,-1182,-415,-1333
00:12:04.200,37.42680359,-122.17304230,33.600,-2700394.750,-4292632.000,3855136.250,0.362,0.553,-9.704,0.179,0.006,-0.018,-1190,-423,-1341
00:12:04.300,37.42680359,-122.17304230,33.600,-2700394.750,-4292632.000,3855136.250,0.402,0.520,-9.711,0.176,0.000,-0.020,-1187,-416,-1333
00:12:04.300,37.42680359,-122.17304230,33.600,-2700394.750,-4292632.000,3855136.250,0.400,0.539,-9.768,0.177,-0.001,-0.019,-1163,-416,-1338
00:12:04.400,37.42680359,-122.17304230,33.600,-2700394.750,-4292632.000,3855136.250,0.383,0.512,-9.811,0.177,0.001,-0.022,-1190,-416,-1338
00:12:04.400,37.42680359,-122.17304230,33.600,-2700394.750,-4292632.000,3855136.250,0.453,0.527,-9.783,0.180,0.002,-0.018,-1192,-418,-1328
00:12:04.500,37.42680359,-122.17304230,33.600,-2700394.750,-4292632.000,3855136.250,0.393,0.546,-9.744,0.177,-0.003,-0.021,-1176,-405,-1328
00:12:04.500,37.42680359,-122.17304230,33.600,-2700394.750,-4292632.000,3855136.250,0.390,0.584,-9.744,0.177,-0.002,-0.020,-1187,-415,-1336
00:12:04.600,37.42680359,-122.17304230,33.700,-2700394.750,-4292632.000,3855136.250,0.417,0.524,-9.795,0.176,0.001,-0.021,-1182,-418,-1346
00:12:04.600,37.42680359,-122.17304230,33.700,-2700394.750,-4292632.000,3855136.250,0.390,0.488,-9.694,0.178,-0.001,-0.021,-1192,-421,-1348
00:12:04.700,37.42680359,-122.17304230,33.700,-2700394.750,-4292632.000,3855136.250,0.373,0.543,-9.780,0.178,0.002,-0.024,-1182,-402,-1336
00:12:04.700,37.42680359,-122.17304230,33.700,-2700394.750,-4292632.000,3855136.250,0.395,0.539,-9.675,0.176,-0.000,-0.020,-1181,-415,-1333
00:12:04.800,37.42680359,-122.17304230,33.700,-2700394.750,-4292632.000,3855136.250,0.431,0.563,-9.735,0.179,-0.002,-0.021,-1195,-416,-1338
00:12:04.800,37.42680359,-122.17304230,33.700,-2700394.750,-4292632.000,3855136.250,0.400,0.546,-9.649,0.177,-0.002,-0.019,-1181,-418,-1331
00:12:04.900,37.42680359,-122.17304230,33.800,-2700394.750,-4292632.500,3855136.250,0.464,0.558,-9.787,0.177,-0.001,-0.019,-1190,-407,-1343
00:12:04.900,37.42680359,-122.17304230,33.800,-2700394.750,-4292632.500,3855136.250,0.402,0.500,-9.713,0.175,-0.001,-0.021,-1181,-412,-1333
00:12:04.900,37.42680359,-122.17304230,33.800,-2700394.750,-4292632.500,3855136.250,0.369,0.520,-9.795,0.178,-0.002,-0.018,-1190,-418,-1343
00:12:05.000,37.42680359,-122.17304230,33.800,-2700394.750,-4292632.500,3855136.250,0.373,0.515,-9.749,0.175,-0.001,-0.019,-1195,-421,-1338
00:12:05.100,37.42680359,-122.17304230,33.800,-2700394.750,-4292632.500,3855136.500,0.323,0.577,-9.706,0.178,0.001,-0.021,-1182,-418,-1363
00:12:05.100,37.42680359,-122.17304230,33.800,-2700394.750,-4292632.500,3855136.500,0.376,0.541,-9.792,0.179,-0.002,-0.018,-1185,-412,-1336
00:12:05.200,37.42680359,-122.17304230,33.800,-2700394.750,-4292632.500,3855136.500,0.330,0.512,-9.790,0.175,-0.003,-0.022,-1176,-415,-1328
00:12:05.200,37.42680359,-122.17304230,33.800,-2700394.750,-4292632.500,3855136.500,0.385,0.565,-9.723,0.177,-0.001,-0.020,-1178,-407,-1333
00:12:05.300,37.42680359,-122.17304230,33.900,-2700394.750,-4292632.500,3855136.500,0.354,0.534,-9.859,0.179,-0.002,-0.021,-1192,-418,-1346
00:12:05.300,37.42680359,-122.17304230,33.900,-2700394.750,-4292632.500,3855136.500,0.381,0.548,-9.704,0.177,-0.003,-0.021,-1192,-416,-1346
00:12:05.400,37.42680359,-122.17304230,33.900,-2700394.750,-4292632.500,3855136.500,0.436,0.536,-9.831,0.177,-0.001,-0.022,-1190,-416,-1336
00:12:05.400,37.42680359,-122.17304230,33.900,-2700394.750,-4292632.500,3855136.500,0.414,0.512,-9.792,0.178,-0.005,-0.021,-1187,-416,-1346
00:12:05.500,37.42680359,-122.17304230,33.900,-2700394.750,-4292632.500,3855136.500,0.376,0.515,-9.771,0.178,0.003,-0.020,-1187,-418,-1331
00:12:05.500,37.42680359,-122.17304230,33.900,-2700394.750,-4292632.500,3855136.500,0.369,0.575,-9.778,0.176,0.001,-0.021,-1192,-415,-1343
00:12:05.600,37.42680359,-122.17304230,33.900,-2700394.750,-4292632.500,3855136.500,0.397,0.541,-9.708,0.178,-0.004,-0.021,-1171,-418,-1333
00:12:05.600,37.42680359,-122.17304230,33.900,-2700394.750,-4292632.500,3855136.500,0.409,0.484,-9.768,0.176,0.000,-0.022,-1181,-407,-1336
00:12:05.700,37.42680359,-122.17304230,33.900,-2700394.750,-4292632.500,3855136.500,0.400,0.541,-9.756,0.176,0.001,-0.019,-1200,-431,-1326
00:12:05.700,37.42680359,-122.17304230,33.900,-2700394.750,-4292632.500,3855136.500,0.395,0.541,-9.740,0.176,-0.000,-0.020,-1185,-405,-1338
00:12:05.800,37.42680359,-122.17304230,33.900,-2700394.750,-4292632.500,3855136.500,0.347,0.520,-9.752,0.177,-0.002,-0.020,-1185,-410,-1338
00:12:05.800,37.42680359,-122.17304230,33.900,-2700394.750,-4292632.500,3855136.500,0.414,0.577,-9.740,0.175,0.001,-0.018,-1182,-423,-1343
00:12:05.900,37.42680359,-122.17304230,33.900,-2700394.750,-4292632.500,3855136.500,0.397,0.541,-9.826,0.177,-0.000,-0.022,-1185,-421,-1341
00:12:05.900,37.42680359,-122.17304230,33.900,-2700394.750,-4292632.500,3855136.500,0.378,0.560,-9.792,0.178,-0.002,-0.019,-1185,-416,-1341
00:12:05.900,37.42680359,-122.17304230,33.900,-2700394.750,-4292632.500,3855136.500,0.453,0.450,-9.692,0.177,-0.003,-0.018,-1192,-416,-1338
00:12:06.000,37.42680359,-122.17304230,33.900,-2700394.750,-4292632.500,3855136.500,0.409,0.553,-9.852,0.173,-0.003,-0.017,-1190,-410,-1351
00:12:06.100,37.42680359,-122.17304230,33.900,-2700394.750,-4292632.500,3855136.500,0.373,0.543,-9.773,0.178,-0.002,-0.022,-1182,-410,-1338
00:12:06.100,37.42680359,-122.17304230,33.900,-2700394.750,-4292632.500,3855136.500,0.371,0.539,-9.754,0.177,-0.002,-0.019,-1176,-415,-1333
00:12:06.200,37.42680359,-122.17304230,33.900,-2700394.750,-4292632.500,3855136.500,0.362,0.563,-9.708,0.181,-0.002,-0.020,-1181,-428,-1336
00:12:06.200,37.42680359,-122.17304230,33.900,-2700394.750,-4292632.500,3855136.500,0.417,0.522,-9.766,0.176,-0.001,-0.018,-1176,-418,-1333
00:12:06.300,37.42680359,-122.17304230,33.900,-2700394.750,-4292632.500,3855136.500,0.385,0.558,-9.799,0.174,-0.002,-0.019,-1181,-421,-1341
00:12:06.300,37.42680359,-122.17304230,33.900,-2700394.750,-4292632.500,3855136.500,0.433,0.505,-9.740,0.176,0.004,-0.022,-1190,-423,-1343
00:12:06.400,37.42680359,-122.17304230,33.900,-2700394.750,-4292632.500,3855136.500,0.405,0.486,-9.673,0.178,-0.002,-0.019,-1168,-412,-1338
00:12:06.400,37.42680359,-122.17304230,33.900,-2700394.750,-4292632.500,3855136.500,0.433,0.534,-9.747,0.180,-0.002,-0.019,-1181,-418,-1338
00:12:06.500,37.42680359,-122.17304230,34.000,-2700394.750,-4292632.500,3855136.500,0.397,0.510,-9.826,0.177,-0.004,-0.022,-1187,-415,-1336
00:12:06.500,37.42680359,-122.17304230,34.000,-2700394.750,-4292632.500,3855136.500,0.352,0.527,-9.773,0.179,0.002,-0.020,-1182,-421,-1346
00:12:06.600,37.42680359,-122.17304230,34.000,-2700394.750,-4292632.500,3855136.500,0.412,0.555,-9.685,0.177,-0.003,-0.020,-1190,-423,-1341
00:12:06.600,37.42680359,-122.17304230,34.000,-2700394.750,-4292632.500,3855136.500,0.347,0.481,-9.694,0.177,-0.001,-0.019,-1192,-418,-1346
00:12:06.700,37.42680359,-122.17304230,34.000,-2700394.750,-4292632.500,3855136.500,0.381,0.515,-9.728,0.175,-0.004,-0.020,-1185,-412,-1351
00:12:06.700,37.42680359,-122.17304230,34.000,-2700394.750,-4292632.500,3855136.500,0.397,0.515,-9.852,0.180,-0.001,-0.024,-1181,-412,-1346
00:12:06.800,37.42680359,-122.17304230,34.000,-2700394.750,-4292632.500,3855136.500,0.409,0.570,-9.804,0.178,-0.004,-0.020,-1181,-421,-1353
00:12:06.800,37.42680359,-122.17304230,34.000,-2700394.750,-4292632.500,3855136.500,0.278,0.543,-9.742,0.179,0.003,-0.021,-1187,-421,-1341
00:12:06.900,37.42680359,-122.17304230,34.000,-2700394.750,-4292632.500,3855136.500,0.433,0.560,-9.704,0.177,0.000,-0.021,-1181,-421,-1346
00:12:06.900,37.42680359,-122.17304230,34.000,-2700394.750,-4292632.500,3855136.500,0.412,0.500,-9.754,0.178,-0.004,-0.020,-1182,-415,-1331
00:12:07.000,37.42680359,-122.17304230,34.000,-2700394.750,-4292632.500,3855136.500,0.357,0.517,-9.744,0.176,-0.000,-0.021,-1187,-421,-1336
00:12:07.000,37.42680359,-122.17304230,34.000,-2700394.750,-4292632.500,3855136.500,0.433,0.520,-9.747,0.176,0.001,-0.018,-1173,-416,-1336
00:12:07.100,37.42680359,-122.17304230,34.000,-2700394.750,-4292632.500,3855136.500,0.445,0.558,-9.771,0.178,-0.005,-0.020,-1182,-421,-1338
00:12:07.100,37.42680359,-122.17304230,34.000,-2700394.750,-4292632.500,3855136.500,0.362,0.479,-9.730,0.176,0.000,-0.021,-1182,-410,-1343
00:12:07.200,37.42680359,-122.17304230,34.000,-2700394.750,-4292632.500,3855136.500,0.412,0.539,-9.802,0.175,0.000,-0.019,-1178,-423,-1353
00:12:07.200,37.42680359,-122.17304230,34.000,-2700394.750,-4292632.500,3855136.500,0.400,0.529,-9.823,0.179,-0.002,-0.020,-1187,-418,-1331
00:12:07.300,37.42680359,-122.17304230,34.000,-2700394.750,-4292632.500,3855136.500,0.407,0.601,-9.814,0.179,-0.002,-0.021,-1178,-421,-1333
00:12:07.300,37.42680359,-122.17304230,34.000,-2700394.750,-4292632.500,3855136.500,0.383,0.529,-9.776,0.177,-0.002,-0.020,-1176,-407,-1336
00:12:07.400,37.42680359,-122.17304230,34.000,-2700394.750,-4292632.500,3855136.500,0.371,0.548,-9.706,0.176,-0.002,-0.017,-1187,-421,-1331
00:12:07.400,37.42680359,-122.17304230,34.000,-2700394.750,-4292632.500,3855136.500,0.436,0.510,-9.764,0.175,-0.001,-0.020,-1185,-410,-1336
00:12:07.500,37.42680359,-122.17304230,34.100,-2700395.000,-4292632.500,3855136.750,0.438,0.522,-9.819,0.180,-0.002,-0.019,-1185,-418,-1351
00:12:07.500,37.42680359,-122.17304230,34.100,-2700395.000,-4292632.500,3855136.750,0.369,0.558,-9.764,0.177,-0.001,-0.022,-1182,-418,-1346
00:12:07.600,37.42680359,-122.17304230,34.100,-2700395.000,-4292632.500,3855136.750,0.388,0.522,-9.785,0.176,0.000,-0.019,-1178,-415,-1343
00:12:07.600,37.42680359,-122.17304230,34.100,-2700395.000,-4292632.500,3855136.750,0.419,0.546,-9.783,0.178,-0.003,-0.018,-1187,-416,-1346
00:12:07.700,37.42680359,-122.17304230,34.100,-2700395.000,-4292632.500,3855136.750,0.350,0.548,-9.725,0.174,-0.001,-0.019,-1185,-412,-1343
00:12:07.700,37.42680359,-122.17304230,34.100,-2700395.000,-4292632.500,3855136.750,0.393,0.503,-9.795,0.177,0.003,-0.022,-1192,-421,-1346
00:12:07.800,37.42680359,-122.17304230,34.100,-2700395.000,-4292632.500,3855136.750,0.402,0.536,-9.819,0.177,0.001,-0.021,-1185,-415,-1336
00:12:07.800,37.42680359,-122.17304230,34.100,-2700395.000,-4292632.500,3855136.750,0.397,0.524,-9.768,0.183,0.003,-0.022,-1187,-418,-1333
00:12:07.900,37.42680359,-122.17304230,34.100,-2700395.000,-4292632.500,3855136.750,0.414,0.505,-9.776,0.176,0.001,-0.022,-1195,-410,-1338
00:12:07.900,37.42680359,-122.17304230,34.100,-2700395.000,-4292632.500,3855136.750,0.414,0.500,-9.701,0.175,-0.001,-0.021,-1187,-421,-1331
00:12:08.000,37.42680359,-122.17304230,34.100,-2700395.000,-4292632.500,3855136.750,0.402,0.543,-9.756,0.180,0.001,-0.018,-1190,-418,-1343
00:12:08.000,37.42680359,-122.17304230,34.100,-2700395.000,-4292632.500,3855136.750,0.402,0.577,-9.862,0.177,0.003,-0.023,-1190,-418,-1348
00:12:08.100,37.42680359,-122.17304230,34.100,-2700395.000,-4292632.500,3855136.750,0.455,0.527,-9.754,0.178,-0.001,-0.020,-1190,-418,-1341
00:12:08.100,37.42680359,-122.17304230,34.100,-2700395.000,-4292632.500,3855136.750,0.335,0.539,-9.816,0.177,-0.002,-0.020,-1187,-428,-1348
00:12:08.200,37.42680359,-122.17304230,34.100,-2700395.000,-4292632.500,3855136.750,0.378,0.543,-9.752,0.176,0.002,-0.019,-1190,-418,-1346
00:12:08.200,37.42680359,-122.17304230,34.100,-2700395.000,-4292632.500,3855136.750,0.316,0.524,-9.723,0.176,-0.002,-0.021,-1182,-433,-1343
00:12:08.300,37.42680359,-122.17304230,34.100,-2700395.000,-4292632.500,3855136.750,0.412,0.543,-9.749,0.178,0.001,-0.022,-1190,-421,-1333
00:12:08.300,37.42680359,-122.17304230,34.100,-2700395.000,-4292632.500,3855136.750,0.376,0.548,-9.764,0.173,0.002,-0.020,-1181,-407,-1326
00:12:08.400,37.42680359,-122.17304230,34.100,-2700395.000,-4292632.500,3855136.750,0.414,0.584,-9.811,0.175,-0.004,-0.020,-1178,-415,-1333
00:12:08.400,37.42680359,-122.17304230,34.100,-2700395.000,-4292632.500,3855136.750,0.342,0.522,-9.720,0.177,0.001,-0.019,-1168,-397,-1338
00:12:08.500,37.42680359,-122.17304230,34.200,-2700395.000,-4292632.500,3855136.750,0.359,0.558,-9.728,0.180,-0.003,-0.021,-1187,-415,-1333
00:12:08.500,37.42680359,-122.17304230,34.200,-2700395.000,-4292632.500,3855136.750,0.385,0.496,-9.747,0.176,-0.001,-0.019,-1190,-418,-1333
00:12:08.600,37.42680359,-122.17304230,34.200,-2700395.000,-4292632.500,3855136.750,0.383,0.524,-9.776,0.177,0.001,-0.022,-1187,-418,-1336
00:12:08.600,37.42680359,-122.17304230,34.200,-2700395.000,-4292632.500,3855136.750,0.453,0.517,-9.886,0.177,0.000,-0.023,-1182,-421,-1338
00:12:08.700,37.42680359,-122.17304230,34.200,-2700395.000,-4292632.500,3855136.750,0.407,0.594,-9.756,0.178,-0.001,-0.020,-1190,-412,-1336
00:12:08.700,37.42680359,-122.17304230,34.200,-2700395.000,-4292632.500,3855136.750,0.429,0.527,-9.744,0.177,-0.007,-0.020,-1192,-416,-1331
00:12:08.800,37.42680359,-122.17304230,34.200,-2700395.000,-4292632.500,3855136.750,0.366,0.565,-9.771,0.177,-0.004,-0.018,-1182,-418,-1336
00:12:08.800,37.42680359,-122.17304230,34.200,-2700395.000,-4292632.500,3855136.750,0.438,0.539,-9.778,0.177,-0.002,-0.023,-1185,-416,-1343
00:12:08.900,37.42680359,-122.17304230,34.200,-2700395.000,-4292632.500,3855136.750,0.421,0.553,-9.756,0.177,0.001,-0.019,-1185,-418,-1333
00:12:08.900,37.42680359,-122.17304230,34.200,-2700395.000,-4292632.500,3855136.750,0.373,0.567,-9.665,0.176,-0.002,-0.021,-1178,-421,-1346
00:12:09.000,37.42680359,-122.17304230,34.200,-2700395.000,-4292632.500,3855136.750,0.362,0.522,-9.773,0.179,-0.002,-0.020,-1182,-418,-1341
00:12:09.000,37.42680359,-122.17304230,34.200,-2700395.000,-4292632.500,3855136.750,0.393,0.541,-9.771,0.175,0.001,-0.020,-1187,-415,-1341
00:12:09.100,37.42680359,-122.17304230,34.300,-2700395.000,-4292632.500,3855136.750,0.431,0.505,-9.799,0.173,-0.002,-0.021,-1192,-416,-1338
00:12:09.100,37.42680359,-122.17304230,34.300,-2700395.000,-4292632.500,3855136.750,0.376,0.532,-9.826,0.181,-0.002,-0.019,-1187,-416,-1338
00:12:09.200,37.42680359,-122.17304230,34.200,-2700395.000,-4292632.500,3855136.750,0.345,0.510,-9.682,0.179,0.002,-0.023,-1195,-418,-1338
00:12:09.200,37.42680359,-122.17304230,34.200,-2700395.000,-4292632.500,3855136.750,0.445,0.505,-9.675,0.176,-0.002,-0.019,-1190,-415,-1341
00:12:09.300,37.42680359,-122.17304230,34.300,-2700395.000,-4292632.500,3855136.750,0.429,0.488,-9.761,0.176,-0.001,-0.024,-1187,-421,-1343
00:12:09.300,37.42680359,-122.17304230,34.300,-2700395.000,-4292632.500,3855136.750,0.412,0.560,-9.694,0.177,-0.002,-0.021,-1182,-418,-1348
00:12:09.400,37.42680359,-122.17304230,34.300,-2700395.000,-4292632.500,3855136.750,0.362,0.558,-9.787,0.178,-0.001,-0.019,-1181,-412,-1338
00:12:09.400,37.42680359,-122.17304230,34.300,-2700395.000,-4292632.500,3855136.750,0.378,0.510,-9.723,0.176,0.001,-0.019,-1171,-415,-1326
00:12:09.500,37.42680359,-122.17304230,34.300,-2700395.000,-4292632.500,3855136.750,0.424,0.601,-9.780,0.180,-0.004,-0.020,-1173,-407,-1346
00:12:09.500,37.42680359,-122.17304230,34.300,-2700395.000,-4292632.500,3855136.750,0.443,0.539,-9.680,0.180,-0.001,-0.019,-1182,-410,-1338
00:12:09.600,37.42680359,-122.17304230,34.300,-2700395.000,-4292632.500,3855136.750,0.393,0.498,-9.744,0.177,-0.001,-0.021,-1182,-418,-1336
00:12:09.600,37.42680359,-122.17304230,34.300,-2700395.000,-4292632.500,3855136.750,0.402,0.584,-9.704,0.179,-0.001,-0.021,-1195,-423,-1361
00:12:09.700,37.42680359,-122.17304230,34.300,-2700395.000,-4292632.500,3855136.750,0.409,0.548,-9.711,0.177,0.002,-0.023,-1181,-407,-1333
00:12:09.700,37.42680359,-122.17304230,34.300,-2700395.000,-4292632.500,3855136.750,0.393,0.546,-9.787,0.176,-0.005,-0.025,-1176,-402,-1328
